ax,ay,az,gx,gy,gz,activity
-1248,14736,-6780,1057,1422,2038,1
-1116,14136,-6800,2237,1415,3538,1
-1368,14320,-7160,2618,1289,3947,1
-1492,14484,-7600,2560,1260,3595,1
-1088,14440,-7636,2395,1714,3129,1
-648,14512,-7196,2047,3302,2604,1
-308,14184,-6072,1459,3681,3194,1
-200,14564,-5584,2030,2649,4830,1
-500,14864,-5824,2843,605,6580,1
80,14576,-5372,3885,-1677,7788,1
460,13884,-6140,4859,-3535,8564,1
380,13524,-6208,5453,-6254,8271,1
784,12472,-7240,6731,-8517,6868,1
1464,12152,-9196,8524,-10469,6663,1
3132,13200,-11060,8983,-8705,5959,1
3820,13344,-12292,8065,-4257,3166,1
2604,12180,-12772,8553,-1703,1678,1
2852,11292,-12528,10162,-1177,1025,1
3480,12696,-11796,10341,249,1294,1
3104,13000,-10484,8549,148,1747,1
2440,12516,-9760,7301,-166,2257,1
2116,11680,-9980,6968,-833,2587,1
2572,10472,-10764,8264,-1189,3715,1
1764,10308,-11148,8690,-2134,3524,1
3024,9340,-11636,8872,-2340,3439,1
3380,9056,-11912,8236,-1201,3225,1
3452,8400,-11920,7326,-617,3287,1
3224,7784,-12036,6230,-41,2641,1
3708,7404,-11872,5101,745,2550,1
3376,6992,-11772,3139,1791,1790,1
2332,6244,-11388,1767,947,811,1
2768,5656,-10960,371,-41,753,1
3412,5316,-11428,-1018,-496,702,1
3324,5188,-11940,-1782,-2008,417,1
2876,5436,-12336,-2222,-3002,-704,1
3916,6008,-12440,-3168,-2333,-1503,1
4372,6736,-11940,-4448,-423,-1778,1
4472,7388,-10176,-6879,901,-1468,1
3792,7292,-9856,-9190,1017,-1478,1
788,7576,-14112,-5849,-3547,-3303,1
-1100,10984,-18920,1979,-8501,-5649,1
5480,11972,-16884,2019,-7141,-1959,1
6536,9324,-12216,-76,1205,-995,1
3504,5848,-9312,-3172,3017,-1743,1
1908,3920,-10920,-4747,2482,-2084,1
1968,5380,-13788,-4469,455,-1132,1
3380,9976,-16284,-4098,187,318,1
4576,15808,-18776,-5173,1179,-575,1
4052,17992,-17644,-7448,4125,-2701,1
2720,14188,-13376,-8395,6149,-2821,1
1332,12552,-10820,-8685,3012,-4400,1
1584,12940,-11368,-9419,-1393,-7153,1
2244,13196,-11920,-9129,-2116,-7812,1
2292,12016,-10888,-7021,1015,-6955,1
480,11476,-9544,-6785,3008,-7073,1
-696,11424,-8744,-6947,4227,-7234,1
-2172,10832,-7956,-6093,5102,-5931,1
-2132,11604,-7776,-5668,5096,-4316,1
-1936,15020,-8316,-5978,3536,-4390,1
-1284,16116,-7996,-4931,1456,-4845,1
-1664,13728,-5488,-2887,-1798,-4127,1
-232,13108,-3492,-2911,-5267,-4011,1
616,13132,-4056,-4338,-5501,-4463,1
-24,12656,-6308,-5668,-4073,-4704,1
-848,11832,-8164,-6041,-3048,-5441,1
-704,12000,-9536,-5471,-1373,-6875,1
12,12200,-10588,-6127,1909,-6373,1
1728,10028,-9356,-4441,6187,-5122,1
220,10840,-6936,-3933,8827,-5068,1
-684,12116,-5292,-2573,8859,-5888,1
-2560,12560,-3932,-2787,6899,-4966,1
-2412,11376,-3784,-1458,4622,-4446,1
-3152,12844,-4148,190,529,-3715,1
-1336,14988,-4684,-394,-861,-5152,1
-168,15600,-6632,-833,-1318,-4240,1
-144,14408,-8004,-255,-2696,-1463,1
-196,13380,-7832,191,-1791,202,1
-1724,13228,-6892,-374,-487,-163,1
-2408,13468,-6452,-1398,182,-1661,1
-2092,13676,-6408,-2452,582,-2197,1
-2324,13568,-7016,-2658,648,-2714,1
-2268,13584,-7720,-2397,744,-2969,1
-2384,13488,-7860,-1655,726,-2009,1
-3112,14320,-7264,-1085,61,-1004,1
-3984,15504,-6732,-1269,-1421,-786,1
-4152,16408,-6540,-1912,-2547,-1221,1
-4432,17368,-6280,-3031,-2892,-1804,1
-4260,17900,-6120,-3590,-2259,-2048,1
-4688,19500,-7736,-4009,-2907,-2463,1
-3852,20584,-10052,-2583,-3717,-2289,1
-2396,20040,-11336,-1261,-2844,-272,1
-1836,19224,-7672,417,-646,2207,1
-1056,19596,-1956,-83,-16,6560,1
-936,16872,524,-978,-251,8926,1
-892,13916,-2016,-1193,107,9341,1
-1116,12588,-5084,324,116,7118,1
-1120,12736,-6460,3077,1446,6240,1
-664,12344,-8000,6547,1606,8106,1
328,11272,-8780,9841,1509,10006,1
132,12492,-9736,13910,-703,11292,1
2092,17252,-8288,14247,-2765,14176,1
1856,18932,-5500,11627,-557,10742,1
960,15476,-2592,9980,-43,6639,1
1472,14564,-2800,9515,781,4863,1
492,13780,-4144,8460,1239,3983,1
-1280,11220,-6268,10931,-2519,4579,1
-996,9484,-10424,17048,-8109,5607,1
2776,10848,-11820,21229,-9952,9503,1
5804,10924,-8760,19617,-8982,9931,1
4996,9288,-7644,16362,-5497,4976,1
3624,8340,-9892,13152,-1825,1183,1
1808,7072,-12044,11727,1505,-251,1
2228,6516,-12180,11695,1409,-100,1
3616,6556,-11564,9065,3705,-35,1
3520,5492,-10944,5175,6118,-307,1
1524,4968,-10548,1239,5555,-1327,1
920,3784,-9748,-1693,2118,-3015,1
2064,3920,-10464,-3174,121,-4111,1
3580,4488,-10248,-4077,-409,-5204,1
4416,5500,-10768,-4100,-565,-5425,1
4840,7308,-11536,-5141,-590,-5470,1
5352,7688,-11956,-6825,223,-4669,1
4516,8708,-14632,-6279,1360,-3762,1
-1388,12012,-17248,-1256,-4087,-7716,1
3452,13644,-15164,-2299,-5153,-7015,1
5188,10456,-13896,-2265,-1487,-4576,1
4692,10812,-12196,-5863,-1000,-4234,1
3140,10952,-13404,-10488,-455,-5661,1
2280,11624,-16800,-13192,-1402,-6255,1
3048,14104,-19212,-12523,485,-5563,1
4304,15404,-16216,-10179,7251,-4821,1
1512,13800,-11908,-7970,11183,-5975,1
-416,12508,-7904,-6844,10206,-5838,1
-716,11248,-5892,-5844,7735,-6002,1
-1724,10652,-5312,-5386,4572,-6640,1
-2404,11264,-5692,-5179,2351,-7012,1
-4020,12860,-5968,-5945,-168,-8073,1
-2680,14500,-6956,-5874,-2451,-7013,1
336,15720,-7908,-5826,-2276,-6015,1
912,14636,-7388,-5962,-134,-4429,1
260,13944,-6064,-6889,308,-3596,1
156,12612,-5648,-7339,484,-4884,1
-840,11200,-5792,-7091,-51,-5556,1
-908,11492,-6268,-6212,-790,-5747,1
-900,10272,-6828,-5861,-274,-6027,1
-244,10192,-7712,-5201,1569,-5112,1
-948,9284,-7552,-4534,2967,-5056,1
-1004,9984,-7444,-2453,4699,-5542,1
-1644,12120,-6484,-642,2211,-5990,1
-2664,13744,-5400,1525,-2019,-3233,1
-276,16108,-5404,1014,-2022,-3089,1
228,16572,-5888,-403,-143,-3803,1
0,14816,-6952,-628,1931,-1684,1
-472,13740,-7492,-444,3702,-2091,1
-2108,13164,-7744,-831,3597,-1970,1
-2696,12392,-7260,-900,2862,-1725,1
-3224,12872,-6764,-907,1993,-2477,1
-3076,13476,-6228,-1185,1453,-3446,1
-2872,14320,-5916,-1496,1029,-3965,1
-2216,14200,-6448,-1511,864,-3458,1
-2832,14784,-6428,-1849,407,-3101,1
-3260,14648,-5632,-2548,-333,-2611,1
-3192,14236,-5232,-3349,-943,-2151,1
-3208,13872,-5180,-4052,-1925,-1882,1
-3384,14460,-5748,-3871,-2976,-1044,1
-3508,14980,-7448,-3752,-2663,-1074,1
-4144,15836,-9048,-3310,-1784,-1931,1
-4732,18164,-10016,-2812,-607,-3565,1
-4968,19924,-10100,-2697,-143,-3741,1
-4148,19624,-8656,-2797,620,-1683,1
-3412,19560,-8364,-2181,649,281,1
-2640,20072,-7224,-1222,1358,1703,1
-1144,19640,-4984,-646,3343,2881,1
-708,16744,-3472,-71,6020,5107,1
-708,14536,-3940,1640,6849,7330,1
-1520,13724,-5024,3725,5248,8860,1
-1864,14460,-4948,7072,2081,11159,1
-1388,14776,-5464,10238,-1267,13830,1
-740,16292,-6304,12876,-4338,15710,1
1360,18032,-5780,12458,-4559,13789,1
1360,17124,-4300,11755,-3165,12944,1
2304,14328,-4632,11746,-3246,11313,1
592,13384,-5336,10455,-936,6366,1
92,10860,-6596,10520,-2921,2645,1
468,10292,-8676,12786,-3918,1745,1
1272,10380,-10732,15515,-5043,2204,1
2804,10296,-11032,17910,-4860,4765,1
4480,11372,-9380,17957,-2107,5675,1
3344,10016,-7800,15376,77,3066,1
2452,8312,-7576,13698,1671,659,1
2524,7220,-7812,11676,2641,349,1
2256,6840,-9272,9862,4134,291,1
2472,6092,-10204,7860,3943,-77,1
2384,6092,-10880,5811,4370,-540,1
2040,5752,-11184,3586,3145,-1211,1
2220,4896,-10440,1078,1850,-1343,1
1832,4532,-10056,-639,-232,-2339,1
3140,4496,-9760,-1858,-2378,-3558,1
4088,5668,-10700,-3295,-2523,-4329,1
3744,7128,-12476,-4593,-3362,-5460,1
3956,7992,-12840,-5456,-2951,-5598,1
6592,8120,-13604,-5349,-255,-1655,1
-724,9912,-17980,-259,-4923,-5516,1
3696,15036,-19220,-1230,-7972,-7067,1
7012,11308,-16744,-4981,-1343,-2151,1
3804,10612,-13352,-11927,2309,-4205,1
780,9436,-15116,-15432,819,-6450,1
656,15748,-18732,-13373,980,-5941,1
1980,14184,-14588,-8624,8864,-6072,1
-676,11364,-7184,-6452,9442,-5653,1
-1700,11044,-4864,-5980,7162,-6161,1
-2216,10964,-4632,-5527,3942,-6141,1
-3072,15764,-6420,-8154,1659,-6483,1
-2536,14992,-7412,-7153,-1069,-6520,1
716,13120,-6268,-5899,-2832,-4339,1
1112,12832,-4992,-6668,-2484,-4179,1
168,13132,-6596,-6422,-2520,-4987,1
-376,11776,-7400,-5719,-2684,-4680,1
204,9976,-7408,-4796,-325,-5298,1
-644,8456,-6812,-4140,1965,-3762,1
-1520,9892,-6888,-3156,2605,-4062,1
-1948,11844,-6556,-1723,1781,-4459,1
-2532,14444,-6848,591,-433,-3055,1
-1316,15296,-6060,874,-1009,-1974,1
-100,15400,-5732,147,-120,-1398,1
-308,14856,-6624,-1066,300,-2216,1
-1412,14584,-7424,-1380,1042,-2312,1
-2640,13020,-7540,-1369,1075,-2664,1
-3156,12764,-7000,-1162,465,-3117,1
-2480,13624,-5780,-952,-809,-2973,1
-1952,13908,-5272,-1381,-1194,-1978,1
-2128,13864,-5660,-1600,-2430,-406,1
-2456,13960,-6512,-2063,-2496,-218,1
-2840,13976,-8088,-2949,-1516,-1448,1
-3464,14864,-9432,-2502,-1328,-2962,1
-3612,16344,-9168,-1828,591,-1993,1
-5632,18792,-9364,-1563,463,-2228,1
-5080,19624,-9144,-1855,-528,-2435,1
-2376,19276,-8412,-1779,1387,-228,1
-1120,19256,-6624,-716,3425,3677,1
-1712,16240,-4640,614,5225,7161,1
-772,13292,-4556,2824,5196,10461,1
-1428,15312,-4240,5495,3925,11954,1
-2080,16660,-4824,7282,-328,13693,1
-576,16420,-7024,10077,-2282,14749,1
760,16088,-8080,9460,-1956,12729,1
8,12588,-7976,10607,-1956,7632,1
684,11928,-8844,14755,-4787,3665,1
1944,11872,-9712,15028,-4098,1292,1
1840,10252,-11460,17149,-2243,-841,1
1472,10248,-11096,19800,-2531,1434,1
3528,10444,-8700,17510,1945,816,1
2460,8528,-7000,13589,4216,-1546,1
2256,6232,-7040,10084,4907,-2619,1
1584,5664,-9340,7912,6606,-2350,1
912,5840,-10492,4208,4909,-2257,1
2208,5644,-10984,1035,3641,-2549,1
1716,5324,-9820,-1636,2345,-3003,1
1368,5628,-10588,-2309,-333,-4781,1
3292,6508,-10820,-2432,-2603,-5213,1
4244,7928,-11884,-3176,-1842,-5973,1
3352,8228,-12108,-5333,-1728,-6235,1
4332,8368,-12688,-8003,-881,-4505,1
4040,8720,-13604,-8332,976,-4815,1
-748,9216,-16080,-3989,-6109,-8367,1
2272,15168,-17604,-1499,-8598,-6159,1
4800,16296,-16008,-10768,-997,-4915,1
2192,10792,-16916,-14420,3864,-4152,1
976,15440,-18848,-13969,7183,-3767,1
2248,14396,-13116,-8957,15024,-1260,1
-1196,12452,-6016,-7468,11814,-2188,1
-2228,9792,-2372,-4020,3673,-4451,1
-2304,9972,-2216,-3119,-3028,-5061,1
-808,14560,-4780,-7385,-3236,-5124,1
-324,15272,-6900,-8433,-4141,-7083,1
692,14948,-7320,-7100,-5302,-6659,1
2128,13792,-6680,-6185,-3000,-5421,1
784,12536,-7464,-6463,388,-5056,1
-468,11188,-8224,-6284,1902,-5391,1
-924,8192,-8156,-5509,3393,-5415,1
-1888,8316,-6780,-3066,3281,-7165,1
-1784,10128,-5988,-1841,4204,-7156,1
-2812,13884,-6372,-2,2006,-6610,1
-1784,16216,-4772,520,-504,-4909,1
1128,16988,-3632,-2147,3372,-4100,1
-688,15116,-6464,-2127,2856,-2032,1
-2248,13804,-8464,-1425,1498,-2834,1
-2312,12352,-8440,-900,1129,-2068,1
-3036,12620,-6764,-511,1197,-2675,1
-3676,14508,-5316,-1666,-207,-2897,1
-3276,14944,-5048,-2532,-355,-1934,1
-3500,14348,-6396,-3070,-1023,-680,1
-3708,14608,-7084,-3078,-2192,-341,1
-4268,16040,-7960,-3720,-3016,-1214,1
-4564,18140,-9068,-3899,-2929,-2883,1
-3448,18904,-8608,-4027,-3070,-2700,1
-2692,19368,-8848,-3563,-2643,-744,1
-1596,19336,-9524,-813,-1755,1531,1
176,18620,-7360,2100,2157,4208,1
-12,17208,-3188,2259,5033,6230,1
-436,14904,-3904,1969,8410,5121,1
-1952,14116,-5412,4029,10740,5618,1
-2484,15360,-6200,6197,9233,8266,1
-2168,16008,-5908,10213,4667,13485,1
-1600,16588,-6084,13682,-2677,14266,1
-108,15924,-5376,16615,-7164,15006,1
544,13228,-5344,17907,-9519,11100,1
3968,12152,-7656,20913,-10727,10336,1
1912,12400,-6480,20996,-8523,5107,1
196,8120,-10304,21563,-5861,-887,1
1380,8156,-12340,20064,-6895,119,1
5472,6432,-10268,14821,933,799,1
4192,4504,-10352,9063,8062,-691,1
1744,3648,-9492,4168,10856,-2208,1
-568,2060,-10208,1256,8821,-3072,1
1708,1476,-12292,-79,3018,-2592,1
6812,3640,-10908,-765,7012,-206,1
3752,4840,-6660,-3869,9200,-355,1
2948,7332,-8632,-6857,4180,-5044,1
5644,9124,-13876,-2823,-6248,-35,1
4032,14428,-8804,-3933,-9737,-3869,1
916,12480,-17812,-7348,-13583,-7795,1
3656,13100,-20768,-13100,-12997,-6471,1
5580,11504,-22764,-14772,-3610,-5252,1
5076,11276,-21036,-12673,7482,-4526,1
1472,11904,-13560,-11658,17021,-5130,1
656,11864,-7676,-10130,14082,-5799,1
-1496,11504,-5252,-6086,9643,-7706,1
-2812,10572,-4396,-4727,4849,-9353,1
-3164,12908,-5064,-7257,1448,-9110,1
-1776,13768,-6072,-7504,-2248,-8193,1
1356,14124,-6588,-6726,-2758,-6519,1
1908,13200,-5952,-7515,-380,-5716,1
1200,12904,-7108,-7927,2413,-5933,1
504,11328,-8572,-8326,4597,-7593,1
-824,9384,-8276,-6611,5585,-7304,1
-508,7972,-7068,-3529,5825,-6561,1
-720,10936,-6344,-1784,6245,-5933,1
-2236,12884,-6100,-1011,3406,-6264,1
-2440,14684,-5348,-14,867,-6170,1
-344,15764,-4104,-797,-120,-4995,1
712,14868,-5932,-1919,1113,-3856,1
-508,13716,-7824,-1944,1829,-2626,1
-2012,12860,-7480,-1531,2279,-2184,1
-2996,13076,-5616,-914,294,-2127,1
-3628,14220,-5472,-1695,-1914,-2100,1
-2752,14212,-5748,-2199,-2549,-1361,1
-2628,14192,-6660,-2067,-3493,-1039,1
-2988,15540,-8620,-2893,-1978,-2228,1
-3868,16328,-8868,-2711,141,-3083,1
-5328,17804,-8856,-2442,-637,-2951,1
-4448,19876,-10628,-942,-2491,-1334,1
-2712,20664,-8848,195,-1570,2128,1
-1084,21156,-4536,532,733,4915,1
-672,18948,-2820,-1311,3897,6693,1
-1188,14072,-4668,379,3111,7758,1
-1300,13080,-5868,5055,40,7570,1
-716,13696,-6284,10183,-699,8771,1
1268,15284,-7592,12090,2554,8803,1
1200,15920,-7732,12955,4226,8462,1
968,16664,-5464,12570,2565,10386,1
720,15868,-3208,10496,818,6107,1
1320,12460,-5332,11166,-966,3471,1
968,11964,-7372,12435,-4490,5317,1
140,9016,-9572,17081,-7211,4862,1
1996,10120,-10584,19589,-8746,4549,1
4704,9948,-8408,17422,-3462,3346,1
3888,7596,-8024,13654,579,-773,1
3880,5972,-9412,10780,4408,-1563,1
2796,5784,-9932,8357,7709,-1251,1
1976,5584,-10368,5914,7979,-198,1
1268,5140,-10516,3294,7400,-571,1
224,4236,-10564,62,4259,-1376,1
1036,3468,-9848,-1801,486,-2209,1
3008,4368,-9804,-3344,-1222,-2791,1
3980,5468,-9848,-3730,-3041,-2489,1
4932,7292,-10152,-4364,-2869,-2162,1
4336,8876,-11144,-6655,-2185,-4016,1
4276,9248,-13500,-8287,-2148,-5300,1
2496,9988,-17644,-5772,-4335,-5930,1
1128,14436,-19488,-1548,-9170,-7441,1
6040,14920,-18460,-4592,-7456,-3327,1
6056,13232,-17084,-7492,587,-2878,1
1148,12256,-15144,-12558,1823,-6553,1
856,12096,-16276,-14756,-1649,-7775,1
3236,13884,-18468,-13514,1406,-5000,1
3188,14024,-16048,-10205,9349,-3152,1
-204,12676,-11032,-8429,11482,-3504,1
800,11372,-6284,-7475,11249,-4773,1
-1132,10128,-3400,-5194,7637,-4987,1
-2028,9300,-2524,-3642,2616,-5620,1
-2140,13100,-3432,-5277,-538,-7128,1
-988,15496,-5076,-8099,-3382,-8658,1
-272,15264,-6608,-7635,-5628,-7454,1
1048,14872,-7396,-6791,-4836,-6203,1
1352,13840,-7200,-7909,-2668,-5570,1
780,12236,-6412,-8003,-1362,-4627,1
-136,10512,-8116,-7379,423,-5066,1
-168,9052,-9720,-6982,2849,-5400,1
196,7504,-8224,-6126,4420,-6189,1
-1632,7392,-6484,-2109,5631,-6326,1
-3292,10872,-5860,-1241,3948,-5031,1
-3444,12400,-5080,708,-404,-2960,1
-3592,14548,-4508,2153,-5286,-3109,1
-1248,17012,-3920,1447,-6232,-5335,1
2960,18404,-3948,-1433,-1692,-4075,1
564,15248,-6364,-1364,-730,895,1
-912,14572,-8596,-1919,-495,2222,1
-2520,12956,-8468,-2214,-37,495,1
-3056,11544,-7812,-2174,-556,-1216,1
-2364,11564,-7340,-1598,-1627,-1816,1
-2104,13036,-7108,-1566,-1787,-1866,1
-2068,14044,-7320,-1704,-1806,-2577,1
-2068,14252,-7476,-2029,-986,-2306,1
-2396,14532,-7648,-2181,222,-2402,1
-3820,15424,-7368,-2018,-299,-2421,1
-4220,16784,-7632,-2253,-745,-2471,1
-3952,17216,-9440,-2475,-337,-3862,1
-3940,18468,-10788,-2106,890,-5254,1
-2960,20100,-9460,-2358,3706,-4662,1
-3676,21260,-6796,-2570,3973,-2116,1
-3164,22476,-4404,-1793,3483,1191,1
-2192,19980,-2864,-958,3906,5150,1
-1556,15916,-3164,-196,4831,9394,1
-1496,13296,-4076,1971,3931,11854,1
-1268,13140,-4596,5152,381,12654,1
-696,14088,-4320,7956,-2608,12256,1
804,15204,-5348,10007,-2092,12686,1
704,15584,-6888,10517,190,11726,1
412,14176,-7916,11859,-2383,10690,1
36,13948,-8576,13704,-2158,9509,1
648,12032,-9108,14240,-2225,7270,1
1592,12452,-8604,14495,-2479,4994,1
1860,12544,-8528,14438,-3024,3204,1
1300,11988,-9680,16066,-2943,2171,1
1732,10500,-9248,18314,-2571,4186,1
2944,10744,-9096,19165,-1007,4062,1
3060,10096,-8068,17078,1536,2482,1
3076,7728,-7728,14080,2887,1251,1
2844,6244,-7796,11107,2601,125,1
2664,5944,-9164,9179,3701,226,1
2308,5344,-9640,6702,4143,-419,1
1412,4872,-10084,4463,3270,-1595,1
1088,3776,-10528,2243,1777,-2699,1
1440,3188,-10688,115,-748,-3287,1
2592,3424,-10448,-902,-2537,-4223,1
2736,4212,-9768,-2035,-3429,-5201,1
3008,5608,-10464,-3066,-4924,-5887,1
3136,7040,-11780,-4547,-5549,-6290,1
3660,8656,-12964,-6538,-4060,-6055,1
3532,7340,-14304,-7008,-928,-6110,1
-212,7636,-17308,-4134,-3190,-7436,1
-2512,10488,-20496,77,-8668,-11204,1
3836,12232,-19548,-1364,-6905,-8077,1
5372,10584,-16108,-3074,706,-4562,1
2460,8820,-13104,-8732,5489,-5245,1
-1148,7548,-13768,-12480,4401,-6768,1
-1056,9740,-16452,-12335,401,-5522,1
1724,14676,-18940,-10796,2869,-3681,1
1212,14660,-15236,-8166,8160,-3263,1
-64,13336,-9964,-7669,8042,-3660,1
-1084,12408,-6360,-7088,5656,-3719,1
-1600,12552,-5620,-6523,625,-4511,1
-1952,11292,-6004,-6342,-2550,-5332,1
-1740,11992,-6312,-6994,-3991,-6005,1
-828,14424,-7244,-8649,-3740,-6454,1
280,15420,-8892,-8942,-2212,-5595,1
776,15028,-9728,-7106,505,-4016,1
28,14568,-10144,-6825,1714,-3846,1
-544,12212,-8196,-6232,2084,-4447,1
-1140,12536,-6728,-5515,1001,-3514,1
28,12368,-6888,-6269,2525,-3563,1
-64,12572,-7628,-6778,5655,-4365,1
-1216,11368,-8140,-7620,8178,-6205,1
-1724,11072,-6984,-7067,8916,-8295,1
-3584,11540,-6644,-4097,4865,-6707,1
-4616,12836,-5484,-2078,208,-2669,1
-2416,13920,-3944,-407,-3495,-738,1
-1028,13628,-2500,-88,-4328,-89,1
264,13740,-2800,-991,-3835,938,1
252,12680,-4504,-2579,-1964,569,1
-444,11676,-6660,-3295,-534,-217,1
-1924,10688,-7404,-2756,-648,-985,1
-1992,10212,-7220,-1320,-2226,-1437,1
-1552,10884,-7452,-762,-2330,-1964,1
-1888,12992,-8252,-408,-1978,-2427,1
-2152,14056,-8144,-799,-1184,-2082,1
-2724,14944,-8136,-1032,-725,-2025,1
-3000,16040,-8084,-1319,-1277,-2980,1
-2340,16920,-7416,-2429,-237,-3153,1
-3008,17800,-7004,-3465,35,-2948,1
-3844,17716,-7528,-3453,-1154,-3488,1
-2600,19188,-10684,-3265,-1325,-4889,1
-2528,20488,-11048,-2275,483,-4746,1
-2768,22152,-7540,-1574,2256,-1137,1
-2092,21384,-764,-558,2535,4349,1
-1236,17632,384,-1015,1644,7187,1
-972,14320,-2336,-1207,525,8113,1
-1520,13900,-5496,299,2333,7718,1
-1876,14216,-7468,2532,3450,8702,1
-1044,13032,-8320,4380,3377,9915,1
336,12396,-8236,7855,2702,11504,1
548,13960,-7220,10559,533,12708,1
656,15412,-5952,12236,-1132,12561,1
708,15468,-6064,11872,-811,10981,1
180,13552,-5896,12273,-2246,8245,1
1024,14084,-6584,12956,-3009,6184,1
216,14316,-7072,13367,-4967,3622,1
-136,11080,-8596,16237,-7408,1959,1
2364,9148,-11444,21541,-7338,3557,1
4380,10556,-11068,22195,-4683,4997,1
4480,11016,-9024,17640,-1406,2705,1
3936,8492,-8232,14075,-216,-973,1
2688,6768,-8828,11163,3189,-2517,1
1300,5440,-9240,10100,4084,-3017,1
848,5884,-10440,9203,5454,-2841,1
1084,5704,-10592,6740,5359,-3052,1
1192,5160,-10616,3452,5266,-3106,1
612,3560,-9972,171,3805,-3137,1
1312,2652,-9584,-1604,382,-4307,1
1804,3500,-9400,-2724,-1909,-5475,1
3152,5104,-10472,-3336,-4194,-5655,1
4596,8088,-11456,-5081,-4793,-4868,1
5336,9360,-13076,-7621,-3218,-5254,1
2548,9508,-15524,-8512,-1787,-6480,1
-1004,11420,-18400,-5276,-4217,-10585,1
-12,15252,-20752,-2393,-8347,-8326,1
6292,16092,-19676,-4131,-2834,-5210,1
3680,12764,-15568,-9887,4624,-6583,1
1108,9256,-14448,-12734,7911,-7306,1
-144,10060,-15520,-13513,7290,-7050,1
728,14460,-15968,-13234,8280,-5947,1
584,15156,-12632,-9711,11574,-4022,1
-472,13868,-8640,-6723,11947,-5021,1
-1760,12260,-5184,-5128,8148,-6109,1
-2564,10976,-2584,-4650,3157,-6984,1
-2044,10440,-2884,-4913,-249,-6969,1
-1248,14384,-3932,-7418,-1489,-6660,1
-1512,16312,-5924,-8459,-2808,-7059,1
-1020,14932,-7644,-7265,-3244,-6080,1
336,13196,-7440,-7326,-3831,-5507,1
796,12660,-6160,-7248,-2590,-4156,1
-240,11848,-6464,-7214,-1009,-4091,1
-1032,10572,-7496,-7726,592,-4245,1
-772,7940,-6836,-6848,855,-3762,1
-576,8580,-6676,-4715,2121,-5185,1
-1024,9360,-6892,-3908,3235,-5857,1
-2332,11084,-6736,-2456,2469,-5607,1
-3724,13412,-7188,-1339,1168,-4046,1
-2824,14576,-6112,768,-2819,-4258,1
-1048,15548,-4068,719,-2999,-3420,1
672,15432,-4448,-429,-139,-2092,1
-228,15012,-6840,-945,614,-827,1
-1796,13880,-7940,-865,610,-1396,1
-2656,13452,-7700,-1258,588,-2466,1
-2608,12736,-7712,-1472,778,-2993,1
-2544,12800,-6836,-1376,416,-3264,1
-2116,13856,-5704,-1905,342,-2763,1
-2388,14524,-5152,-2261,-71,-1685,1
-3220,15048,-5764,-2312,-851,-1249,1
-3608,14808,-6176,-2363,-1065,-1175,1
-3936,15668,-6872,-2758,-1502,-954,1
-4404,16456,-6828,-3310,-1994,-696,1
-4392,17336,-6944,-4032,-1931,-594,1
-4972,16980,-6836,-4026,-2544,-439,1
-4488,17072,-6596,-3737,-3456,484,1
-3332,17344,-7260,-3114,-5115,1127,1
-3528,18156,-10264,-1789,-5035,838,1
-1724,18304,-7352,1211,-2208,4009,1
-84,17828,-3708,2706,1612,7623,1
1064,15812,-4312,3498,4318,7456,1
760,16520,-5652,6087,3088,6829,1
-40,16356,-5968,11671,68,12608,1
1148,18136,-6160,12199,1196,13360,1
140,14724,-7668,13275,141,10967,1
592,13852,-7608,14978,-2672,10948,1
2208,12852,-7284,15536,-4713,6116,1
3128,13712,-7068,17278,-6347,6538,1
1680,12976,-5672,17670,-2279,5995,1
1216,9368,-8688,19235,-3304,3983,1
696,9180,-10168,19736,-5312,4009,1
4692,8740,-8152,15245,-1106,4032,1
3592,6164,-8432,8989,3716,2332,1
2668,4284,-8524,3786,5474,362,1
1772,3152,-9524,-436,4574,-1290,1
2124,1336,-9664,-3172,1909,-1384,1
3340,2972,-10788,-4851,1345,-130,1
5484,6368,-10428,-6576,2248,57,1
4496,9568,-11980,-6812,-484,0,1
-720,21440,-13936,-5508,-6344,-8256,1
6672,14012,-15184,-3758,-6342,-3663,1
5028,8456,-11912,-5320,-1384,-5902,1
1528,7368,-13784,-7968,-6031,-7025,1
4624,10884,-17980,-10813,-3006,-3235,1
3556,16324,-18836,-12174,3276,-3512,1
2436,15748,-12556,-8383,9880,-4425,1
392,12268,-6920,-6408,9585,-4748,1
-1032,11776,-5000,-6375,6087,-6212,1
-1080,11072,-5324,-5598,2742,-6590,1
-1820,12944,-6336,-6251,728,-7102,1
-1604,14428,-7520,-6870,-2268,-7923,1
-512,14840,-6996,-4669,-3316,-5237,1
856,13692,-6328,-4984,-2098,-3920,1
-196,14356,-6444,-6859,-1405,-5360,1
-1264,13236,-7828,-6582,-2040,-6037,1
-140,11280,-8336,-5549,-716,-7012,1
-596,8952,-7544,-5544,1992,-6385,1
-548,8184,-6044,-4814,4806,-3924,1
-1940,9528,-5392,-2085,4178,-5117,1
-2432,12704,-4780,-2056,3310,-6041,1
-1880,14552,-3968,-717,-2187,-6264,1
300,16800,-5316,-1608,-2351,-4937,1
612,15788,-7912,-1510,-547,-1329,1
-224,13432,-8616,-1256,1594,252,1
-2588,12448,-7628,-1920,1731,-1071,1
-3964,12216,-6372,-1391,-14,-2307,1
-3488,14012,-5516,-2104,-728,-4510,1
-2828,14544,-6596,-3772,994,-4923,1
-3200,13708,-7448,-3282,638,-3450,1
-3388,13508,-7692,-1945,-699,-2491,1
-3820,15340,-7448,-1473,194,-2836,1
-4188,16876,-9160,-423,1900,-3638,1
-5512,21340,-7024,-1422,1703,-5499,1
-5068,21520,-3136,-2172,750,-783,1
-3512,20808,-2112,-852,-581,2905,1
-3188,20572,-1456,-539,-1799,8166,1
-3404,15492,-3424,-41,-3092,12361,1
-2620,12764,-5140,2047,-4879,13310,1
-888,12932,-5844,5245,-6435,11405,1
1292,13560,-5380,8501,-4129,11016,1
2820,13672,-6348,10490,149,11384,1
2500,15756,-6784,8777,4029,10132,1
252,15088,-5908,6227,2991,5969,1
-56,11832,-5544,5921,571,2557,1
1208,11044,-5396,6981,365,451,1
1500,11268,-5476,7967,209,1275,1
1264,11160,-5532,9646,-1852,2118,1
340,10724,-7080,10992,-5537,2360,1
3308,12304,-7260,10250,-5838,3654,1
3756,13072,-5732,5816,-2841,2553,1
2280,10952,-6016,2790,-1113,-299,1
1160,9884,-8096,-495,-523,-3187,1
1076,9964,-8920,-3109,-1417,-3961,1
2188,10292,-9708,-6483,-154,-4630,1
2788,10156,-10240,-8953,1252,-6452,1
3840,11064,-10544,-10496,4194,-7749,1
3112,11196,-10052,-10707,6829,-9240,1
3108,11844,-9512,-10050,6367,-4874,1
2488,16224,-11848,-4288,3295,-7521,1
-4760,24208,-11076,1793,-6554,-9629,1
1192,13684,-4304,1847,-2743,402,1
1496,15424,-3540,-867,-3005,-623,1
2908,14752,-4016,-4267,78,-167,1
952,12808,-7216,-3281,1077,1480,1
-576,12484,-9092,-967,3332,-921,1
-3092,11132,-6816,-975,5383,-3795,1
-4912,11604,-5492,-1055,3094,-4503,1
-5360,12860,-6152,-683,302,-4776,1
-4228,15212,-6772,-749,-843,-9900,1
376,16392,-5780,-2927,3811,-12127,1
-644,14508,-6332,-3027,6107,-6134,1
-2516,13228,-6468,-1098,2351,-2478,1
-2920,12828,-5900,-24,473,-770,1
-3608,13320,-5956,126,-1175,-344,1
-3708,14160,-5520,-832,-3029,-1127,1
-2020,14536,-6616,-2358,-2638,-2871,1
-2212,14580,-7560,-3263,-1568,-3190,1
-2256,12940,-8420,-3057,-883,-2502,1
824,15980,-2012,89,-208,-606,1
512,16248,-1928,65,-290,-473,1
844,15956,-2060,-52,-486,-310,1
740,15712,-2112,-54,-622,-215,1
668,15952,-2008,8,-1023,-203,1
604,16240,-2100,11,-825,-378,1
520,16060,-2252,77,-895,-651,1
612,15956,-2296,131,-810,-743,1
588,16032,-2168,7,-896,-603,1
520,15992,-1880,-68,-1232,-451,1
444,15900,-2252,-37,-1774,-477,1
264,15848,-2408,119,-2068,-571,1
372,15640,-2540,238,-2242,-578,1
316,15976,-2132,298,-2414,-482,1
228,15944,-2140,280,-2480,-409,1
148,15948,-2156,276,-2529,-351,1
92,15964,-1812,322,-2495,-471,1
36,15992,-2208,416,-2557,-768,1
20,16080,-2152,387,-2726,-414,1
104,15956,-2400,353,-2820,-227,1
-256,15688,-2516,277,-2978,-45,1
-396,15616,-2424,351,-3275,60,1
-304,15940,-2692,495,-3449,7,1
-440,15864,-2572,611,-3503,12,1
-576,15428,-2420,616,-3642,-16,1
-572,15744,-2124,574,-3742,-167,1
-780,15824,-1976,537,-3729,-487,1
-936,16112,-2016,477,-3767,-953,1
-1028,16272,-1584,267,-3722,-1337,1
-1140,16592,-1480,-194,-3478,-1879,1
-1956,16740,-1564,-1108,-4237,-2786,1
-2892,16864,-1160,-2433,-6038,-3231,1
-3612,18124,-728,-4212,-8149,-2948,1
-4556,20280,-580,-7309,-9862,-3249,1
-4128,19560,-292,-9904,-10426,-3850,1
-4224,19696,844,-11284,-9669,-6620,1
-3940,19428,1640,-10493,-7935,-10168,1
-5236,17704,-424,-9078,-7390,-10073,1
-1804,15964,-1168,-8131,-1943,-11005,1
-420,15708,400,-8329,4448,-13019,1
-2948,17188,924,-9593,6865,-15499,1
-6168,17644,2200,-11313,4640,-18947,1
-7160,14264,1864,-9961,5469,-19639,1
-8524,13344,1680,-8452,4307,-17721,1
-8832,11896,380,-7448,909,-13844,1
-8392,11024,60,-6459,-1443,-10895,1
-8172,11116,1512,-6491,-1564,-10347,1
-7828,10036,4400,-6274,-862,-9397,1
-8772,8028,4236,-4842,-259,-7139,1
-8428,6972,5316,-3099,-353,-4247,1
-8612,6528,5412,-968,501,-2246,1
-9172,6588,5744,591,633,-563,1
-9196,6324,5460,1477,-601,2143,1
-10172,7120,5052,1628,-2075,4482,1
-10208,8108,5124,1243,-3817,6659,1
-8740,9184,4880,1445,-2713,8956,1
-7032,10160,5228,2754,1380,9962,1
-10548,11900,3864,4091,4481,7349,1
-19236,18880,2836,2220,2075,-764,1
-13096,23236,6228,-2043,-447,2172,1
-5636,16964,7396,-2407,-151,6625,1
-7700,13992,4360,-265,6394,992,1
-9424,10828,3116,630,9746,164,1
-13252,9816,3676,1891,5815,3758,1
-11744,12280,4304,4950,3404,9434,1
-9720,19428,3116,7665,2594,12061,1
-6392,24200,552,7079,3380,12160,1
-3252,21952,-1772,1425,8297,6913,1
-5636,14212,-1368,-1296,11957,3099,1
-7856,10672,-976,95,9205,5083,1
-8052,10216,-892,1835,3558,7981,1
-5952,11600,-128,3507,-2136,11490,1
-4108,13464,-144,4379,-4966,12186,1
-3600,15504,-8,4095,-7353,9997,1
-2892,18096,16,4369,-8331,10745,1
-2248,19008,-764,5029,-7989,9663,1
-1668,19068,860,3288,-6779,10292,1
-1068,14992,1004,1734,-3671,8402,1
-1228,13336,116,2631,-1999,7265,1
-1708,12224,-416,5074,-1948,5722,1
-424,16120,-1100,5882,-659,5819,1
356,15676,-184,5094,776,4395,1
1320,16000,1372,3280,3056,6558,1
632,15096,2288,2574,4043,6610,1
-584,14368,2340,1838,3879,4530,1
-496,14756,1148,994,4548,2022,1
288,15288,-328,276,7200,-334,1
-232,16392,-1196,-639,9148,-308,1
-2680,16880,-2232,-790,5135,-266,1
-2912,15768,-2532,-839,2539,313,1
-1824,16112,-2404,-914,-1008,1385,1
276,15176,-1308,-11,206,1753,1
4,14972,-12,896,3368,328,1
-204,15604,560,1755,4284,782,1
-672,16328,1464,1096,2795,425,1
-52,16432,1528,228,536,1688,1
-356,16216,124,-667,-1017,2710,1
-580,16044,-1324,-584,-1816,3180,1
8,15036,-1436,303,-529,2613,1
-704,14476,-1512,1204,457,900,1
-640,15508,-1028,1754,-27,463,1
212,15784,-284,2132,151,-33,1
2224,17376,256,1804,1093,-1661,1
3460,18296,1020,967,3758,-1553,1
3176,18716,832,489,4584,-1652,1
2852,19760,-712,-401,3127,852,1
1604,20940,-3056,-600,348,4059,1
1432,23168,-4924,-187,-4093,6997,1
2060,22396,-6308,233,-5540,6320,1
2364,20188,-6300,1832,-1408,3389,1
636,20096,-6040,4122,2251,-1002,1
-740,19624,-4372,3802,655,-4044,1
-28,16988,-2596,2706,-1989,-6382,1
780,15168,-2808,1900,-1754,-8787,1
1392,15084,-3248,1174,-330,-10070,1
-2064,16780,-3244,372,-755,-10910,1
-5108,18188,-1608,-2768,-8099,-13960,1
-3508,17016,-1684,-4755,-12919,-15388,1
-1776,18508,-2508,-4933,-14495,-15399,1
-2336,19160,-3116,-6640,-13333,-14107,1
-1452,18284,-3304,-8078,-11310,-12957,1
-24,14232,-2596,-9004,-10915,-9219,1
280,13300,-564,-8975,-8388,-7506,1
-3352,19504,28,-12465,-4100,-5149,1
-6692,22900,1176,-18443,-5516,-7625,1
-5196,16480,12,-19971,-4314,-14414,1
-3404,13004,8,-18776,1192,-19891,1
-3544,10796,636,-17243,3741,-20076,1
-5948,6188,1716,-14164,3598,-16903,1
-5312,6940,3836,-11811,4038,-10318,1
-5584,8024,5236,-10734,5074,-7948,1
-4896,8288,5540,-8821,5419,-7822,1
-7820,7260,6816,-7333,5619,-6465,1
-9492,6160,6116,-5183,4170,-2135,1
-9040,5836,5100,-2713,4446,386,1
-8724,5964,4116,-1054,3436,1326,1
-10060,7100,3828,-586,1790,3284,1
-11044,9084,3396,-1086,-567,5405,1
-10368,9504,4264,-571,-1187,5970,1
-9216,8180,5024,1193,-473,5384,1
-9308,7624,5932,2778,-864,6588,1
-14644,12360,6772,1166,-2203,3692,1
-17092,18256,4904,251,-1841,-1276,1
-8080,16208,5356,-183,-849,2439,1
-6844,14764,6920,-435,1622,1010,1
-10416,13092,7304,-1308,630,281,1
-10316,9624,5936,222,3845,493,1
-11396,8900,4964,2502,5059,1117,1
-12928,10892,5960,3576,3153,3676,1
-10972,13504,5376,5016,3046,6425,1
-10264,15996,4460,6618,4560,6275,1
-10204,16908,3140,7390,4585,6595,1
-9948,16376,2256,7798,4994,7496,1
-8936,16508,1432,8170,5415,8154,1
-7236,15716,1004,7550,5765,9527,1
-7400,15460,788,6654,4254,10134,1
-6300,15328,-304,5183,2864,11683,1
-4812,15624,200,3682,2108,12149,1
-2908,14148,992,2702,2047,11609,1
-2724,13704,900,3022,2302,10037,1
-1836,14316,128,3859,297,10014,1
-3732,16560,532,5175,-1407,8058,1
-2732,18880,-1344,5028,-1272,9082,1
-2900,18244,-884,1738,-2068,7908,1
-2824,13836,-816,962,-1999,10038,1
-2252,10928,288,2160,-1900,7485,1
-1228,13120,-2040,3922,-152,7752,1
-988,14052,56,4003,1673,5523,1
-1500,14016,972,4594,2230,5005,1
1332,16472,2808,3725,4014,3352,1
1464,18120,2184,1379,7243,5158,1
-1048,16428,1556,568,5991,2128,1
-2160,15692,152,-1086,7883,-399,1
-732,14872,-1928,-2160,9069,203,1
-1124,15080,-2428,-2003,9645,457,1
-2292,16296,-2512,-1940,7668,490,1
-2808,15452,-2852,-1003,3755,1278,1
-2300,15800,-2040,-612,-285,564,1
44,15492,-348,-86,456,1179,1
572,15760,328,580,1510,862,1
752,15852,628,523,1214,779,1
596,16284,-192,321,392,2072,1
304,16244,-760,1,-733,2698,1
992,16096,-996,481,-864,2148,1
1228,15984,-800,1046,-178,1009,1
856,16176,-956,1487,-64,860,1
516,16272,-1304,1684,-1238,1631,1
1008,16684,-1640,2105,-2040,2527,1
1172,17248,-1964,2261,-2540,3347,1
2056,17696,-1572,2200,-1858,3296,1
2684,18360,-652,2064,604,3534,1
1452,20120,-488,2722,2343,4851,1
-316,21048,-428,2431,1722,4865,1
-116,23116,-72,2046,-76,2772,1
236,22300,-1060,418,-1392,-213,1
356,21144,-3284,-568,-2452,-631,1
1392,18880,-5824,-682,-3238,258,1
3340,15972,-6608,778,-1523,-740,1
4344,14540,-5344,2980,4231,-4855,1
1760,13800,-4748,4325,7529,-9843,1
-696,16456,-4288,3499,7148,-14193,1
-2548,18232,-2048,2015,3078,-14379,1
-1700,18704,752,-2546,-2864,-15975,1
-2464,18012,-172,-4941,-6698,-16316,1
-56,17372,-2208,-5467,-6484,-17532,1
-1344,17012,-4136,-5257,-6207,-18294,1
-1900,16068,-5288,-6117,-5863,-18550,1
-980,14476,-5848,-5055,-7724,-15130,1
-1112,13732,-4968,-3909,-10895,-9945,1
-2708,18156,-1320,-8055,-11480,-3650,1
-7432,22016,-476,-16608,-17058,-1914,1
-4868,16728,736,-18985,-9675,-8722,1
-2016,12440,-48,-18079,-184,-16386,1
-3316,9776,3040,-15801,2902,-16979,1
-5488,8628,5648,-12927,5179,-12810,1
-6948,7712,6896,-10088,5023,-9305,1
-7604,7192,5732,-6303,5525,-8222,1
-8628,6380,5044,-4057,5637,-4137,1
-9456,6460,4404,-2815,3415,-1418,1
-10020,6464,3908,-2127,1018,1532,1
-10612,7312,3808,-2066,-1176,3213,1
-10228,7964,5872,-1805,-1824,4843,1
-9744,8408,6292,-619,-1724,6327,1
-9564,8940,6264,844,-1437,7876,1
-7876,8932,5616,3508,984,9567,1
-16284,17868,5896,-353,-994,1548,1
-17400,25548,5844,-4300,1344,-823,1
-7092,12364,7584,-4241,1450,1384,1
-12780,8200,7636,252,3073,2767,1
-11508,8212,6340,4328,6333,2883,1
-13300,11724,8640,7222,2052,10223,1
-10684,21192,6392,12407,2009,12670,1
-5464,23824,48,8813,7470,9241,1
-5612,14880,-1344,1526,8931,6144,1
-8420,9480,-288,3297,4919,9608,1
-7200,10180,-444,6501,-2092,13736,1
-4504,12900,-964,7756,-6836,14560,1
-940,17148,-844,8042,-9221,13315,1
-924,18160,-1124,6085,-6473,12276,1
-2984,17144,1264,4525,-3032,10142,1
-1596,15388,1348,3599,-782,8061,1
-52,15252,620,4248,2719,5842,1
-236,14132,180,4660,5368,4322,1
-188,16268,1068,3305,8630,4556,1
-560,15464,940,1716,7944,4608,1
1144,15372,880,1268,11392,6029,1
-580,14672,-68,1001,7639,1272,1
-1376,15444,-2436,-328,4334,386,1
-1240,14388,-3380,-101,2375,1406,1
-1124,14496,-2448,658,2171,3275,1
-1348,17280,-1212,1406,605,4300,1
-240,17456,1932,-184,-403,2473,1
1344,16532,1784,-1050,667,1077,1
948,16076,4,-1774,-197,1510,1
1160,15716,-788,-1850,-1488,1960,1
1464,16356,-2088,-1190,-132,1316,1
824,16020,-1252,-154,1542,800,1
124,15936,-44,237,2000,398,1
656,16336,-128,509,405,248,1
1488,16520,-1024,71,-571,-45,1
2284,16012,-1404,10,-1109,220,1
2412,16372,-1832,1122,386,539,1
1380,17320,-1572,1492,1191,1069,1
568,17096,-1064,1876,-982,2500,1
1736,17852,-1680,2560,-1998,3272,1
1996,18732,-1220,3317,-1559,3138,1
1152,18792,-28,2714,-981,2120,1
1572,21220,200,2064,1753,296,1
2016,22984,548,967,2748,-1838,1
764,21780,-1212,-1091,214,-3669,1
336,18308,-4564,-2593,-2616,-4743,1
800,14328,-5976,-1082,-239,-5536,1
128,13524,-5792,586,3319,-9137,1
-5656,18740,-5032,2196,-1071,-13197,1
-3904,20152,-2200,650,-6539,-15907,1
-1780,19712,1320,-1589,-11128,-17154,1
-1436,20484,2956,-7898,-11843,-13916,1
-1876,17068,580,-10572,-12399,-10175,1
-484,15784,-812,-12208,-7566,-6783,1
-1624,18568,-648,-16452,-4056,-6918,1
-380,19548,16,-19705,3607,-12079,1
-2192,15616,-716,-20104,4803,-19967,1
-4888,10640,-16,-18646,2204,-22225,1
-4740,7452,2084,-15690,7570,-15360,1
-5512,6816,4308,-12358,9645,-12623,1
-7532,6272,4376,-10046,4238,-9179,1
-6412,6056,5716,-6671,4955,-5120,1
-8004,5948,5352,-4148,4173,-1652,1
-8772,4928,4892,-2118,2128,1516,1
-11208,6344,4288,-911,-42,3622,1
-10588,8260,4524,-645,-1407,5662,1
-10148,10512,6108,-498,-795,6662,1
-8984,9220,6108,1387,337,9388,1
-9192,8796,5048,4107,2147,10676,1
-23116,20244,4120,-2514,-1143,570,1
-4528,18804,9132,-3068,1865,7088,1
-8992,12152,7364,480,5276,5109,1
-9420,9924,5564,3460,9278,3720,1
-10012,8204,5328,5324,7903,4969,1
-9660,10844,6460,8216,5103,9302,1
-8484,19392,3060,10684,156,12824,1
-5384,24300,-1236,8545,2486,10714,1
-2840,19468,-1312,675,8655,6386,1
-5056,11624,664,514,6922,6378,1
-5440,10876,216,4170,614,8586,1
-4980,14748,-816,7580,-5038,11160,1
-1344,19160,-116,6526,-7545,11948,1
-700,17924,-556,3977,-2848,8764,1
-1148,15712,-748,2819,2108,7780,1
-1864,15932,-236,2837,4370,6895,1
-1500,16368,-68,3393,5065,7451,1
-980,15352,-640,4134,5501,5744,1
-792,14144,180,2246,6684,5703,1
-652,12788,904,1753,8832,7320,1
-1896,13144,964,1241,5057,3730,1
-2188,15212,-1900,-230,660,3814,1
-1300,15736,-2096,-711,-498,5018,1
164,16256,-1612,182,-369,4834,1
556,16504,-332,1573,2793,2663,1
368,17148,1476,460,2767,786,1
-256,16936,1512,-1439,495,519,1
-40,16412,-668,-2600,21,1082,1
1268,15992,-1404,-2482,-477,324,1
2176,15560,-1624,-1760,897,621,1
1608,14832,-1116,-508,2754,1575,1
76,15460,-924,524,1808,1687,1
608,16292,-948,1226,-30,1337,1
1560,15572,-1236,1300,-1385,1183,1
2624,15468,-1632,1616,-2029,1834,1
3300,16492,-1936,2452,-1223,3303,1
2180,17876,-1512,3153,-387,3346,1
1200,18284,-460,3057,-521,3104,1
964,20108,904,3037,-847,1870,1
1900,23120,1308,1844,43,-344,1
3168,23656,1020,164,2041,-566,1
3272,22648,-2052,-994,1702,-1624,1
2472,20328,-4804,-1590,-448,-2472,1
2196,16808,-6252,-1653,-485,-4741,1
1072,13296,-4956,-487,3539,-8555,1
-792,15156,-5300,664,4065,-10389,1
-4600,17760,-4108,1697,-3478,-12451,1
-4836,17968,-1904,309,-13879,-15658,1
2660,16620,184,275,-6471,-18296,1
1532,19504,412,-4301,-2897,-18879,1
-1524,18680,-408,-6873,-3100,-13464,1
-2384,16992,-252,-10986,-9170,-5891,1
-4060,21704,848,-18054,-14117,841,1
-700,20204,152,-24068,-2196,-7781,1
-252,12448,-1456,-20345,9871,-22597,1
-7064,8532,-1276,-14173,-2485,-22720,1
-6400,6884,1224,-14775,-126,-14490,1
-4128,8400,5372,-14328,3974,-12879,1
-5336,7632,8216,-12482,3738,-12022,1
-5536,5456,8384,-7662,7045,-8851,1
-7816,4144,7348,-3428,6899,-4032,1
-9536,3556,4000,-1416,3303,-84,1
-9896,4456,4376,-1237,799,1815,1
-10156,6420,4684,-1803,-285,4753,1
-9612,7532,6176,-1343,240,7126,1
-9776,7596,6876,1276,148,8790,1
-15116,12172,7216,-613,-2327,6641,1
-16712,20708,5564,-3557,-755,-84,1
-7580,14200,7528,-4499,443,1602,1
-10348,9312,9672,-3806,424,3918,1
-10860,8456,9208,-1499,4333,2940,1
-11932,8012,10604,89,3934,5937,1
-11756,12312,9580,3873,5946,8708,1
-8820,17552,6080,8423,5429,9536,1
-8008,18940,1936,8157,5181,9656,1
-10084,17556,-896,2927,6319,7026,1
-11284,12848,-1280,1948,4899,8681,1
-10828,11424,-132,5533,-1497,14048,1
-8768,12696,-348,9598,-7935,17883,1
-4984,15876,1260,10300,-11839,19123,1
-2128,16816,1356,8727,-10591,17525,1
-188,16304,3012,7537,-8989,14404,1
452,17236,3000,8191,-5710,11241,1
680,17836,3816,7596,-1621,4429,1
-1168,14828,2948,8403,5430,-1393,1
536,17084,1096,6993,12327,-40,1
-2508,16424,1068,4283,13483,72,1
-3156,14476,716,2099,10873,3194,1
-3164,13296,-740,2300,6922,5891,1
-2352,13500,-1612,2232,3321,7145,1
-1432,13396,-328,2902,747,8580,1
-1052,15768,508,4133,119,7792,1
-344,16640,724,3672,505,6460,1
-804,16424,1560,1429,2499,4340,1
192,15412,1352,650,6111,2928,1
-180,15504,748,516,9060,1147,1
-1024,16776,80,-434,8307,-583,1
-1152,15832,-1120,-722,6692,158,1
-1504,17480,-1960,-892,3344,1906,1
-1524,15676,-1124,-555,1867,1249,1
-1040,15636,-1024,-492,2307,491,1
-652,15568,136,-685,2890,643,1
-1072,15460,-32,-934,1098,1069,1
-100,15728,-312,-896,-732,2102,1
700,15484,-340,-695,-1231,2434,1
312,14972,-340,-259,-932,3241,1
460,15160,-728,678,-41,2882,1
420,16384,-412,1548,568,1655,1
956,16508,948,2165,1487,494,1
904,16464,1604,2076,1903,319,1
1244,16728,992,1686,1257,861,1
988,16816,144,1585,-16,2525,1
2080,17148,-880,1374,-969,3993,1
2960,17760,-1528,1506,112,3711,1
2600,18836,-1056,2014,1479,2965,1
824,20472,-2408,2310,1105,3198,1
-224,20052,-2412,2802,-62,3691,1
-88,20104,-1332,3355,73,2198,1
992,22024,-180,3934,341,494,1
1692,24924,256,2964,221,-603,1
1876,22960,-1068,-197,-1964,-2298,1
2104,18668,-3144,-2085,-2549,-4528,1
2224,15540,-4384,-1663,148,-8061,1
1036,14500,-4752,-704,3594,-12656,1
-1228,16260,-5364,-312,5607,-14067,1
-6196,19440,-4360,-2949,-2021,-16391,1
-4232,19180,-3524,-4745,-9709,-17423,1
-1624,18356,-2856,-5222,-14426,-14785,1
7456,16832,-4140,-5186,-5655,-17183,1
-2932,18184,-1292,-8022,-4352,-18177,1
-1640,18648,-3052,-11821,-3428,-15308,1
-5596,17560,-668,-13904,-5625,-10619,1
-4768,19324,172,-17704,-6342,-9338,1
-1196,16428,1304,-19981,-5722,-9331,1
-1608,13816,1192,-19992,-2646,-13770,1
-2968,9764,1392,-17339,-3180,-14184,1
-4920,9600,704,-15085,-1280,-11265,1
-5768,12304,2124,-15204,1808,-12645,1
-5724,11456,4656,-15656,4934,-14009,1
1800,1816,4736,-11753,5206,-9698,1
-4016,4756,8600,-7755,8497,-7774,1
-8052,5344,7244,-4385,6341,-5022,1
-9240,4008,6520,-2844,3176,-2352,1
-8188,4664,6160,-1236,1715,-1982,1
-9096,5172,5340,366,4131,-485,1
-10328,6524,4632,900,1731,2321,1
-9868,8028,5848,607,-198,4579,1
-9504,8528,6004,1340,-718,5818,1
-8924,8756,5424,2722,-48,6835,1
-13612,14560,5756,980,-929,4084,1
-15292,19012,4752,-1202,493,-277,1
-10684,14336,4572,-2286,1954,1119,1
-10364,11140,5960,-3012,1931,1174,1
-12188,9468,7968,-2827,-518,2376,1
-12880,7964,8268,-1710,-1744,3274,1
-11624,7936,7756,918,425,2865,1
-12452,11268,8316,2081,1920,3139,1
-10816,13176,8392,3180,4208,4898,1
-10652,14824,6936,6083,6972,4691,1
-11052,15896,5256,8032,7938,5210,1
-10124,16808,4172,8904,7928,6607,1
-9304,16584,3368,9619,7261,8508,1
-9196,16436,1904,9710,5333,10230,1
-8360,15888,44,7067,3937,11599,1
-7340,14612,-1316,3515,1443,12249,1
-6456,12964,-252,2510,-67,14117,1
-4636,11784,1168,3846,-3037,15510,1
-2628,11916,1420,6813,-5025,15075,1
-3072,14588,876,9008,-7626,12514,1
-772,16400,596,8995,-7842,10283,1
-1364,16988,368,7025,-3758,7528,1
0,20288,740,4050,3784,7867,1
-1796,16960,1012,1676,6245,6038,1
-1852,13780,120,1521,6008,5000,1
-2144,12736,-880,2100,6716,4813,1
-2488,13164,-1368,3433,5098,5071,1
-1176,14328,-216,2538,6116,5324,1
-1408,14476,52,2918,5318,4840,1
-1340,14916,400,1856,4337,5049,1
-624,14612,172,1528,4673,4805,1
-1976,14996,-360,603,3543,3059,1
-1004,15424,-1188,383,3061,2578,1
-1256,15456,-1724,-197,2322,1493,1
-1492,15684,-1712,-500,3234,1096,1
-2556,15680,-1272,-635,1167,1954,1
-2320,15940,-416,-839,-1143,1519,1
-1292,15824,-8,-790,-1168,2042,1
-472,16224,476,-578,-495,832,1
364,16152,828,-421,118,631,1
944,16252,776,-291,1218,1091,1
624,15876,492,-441,1211,1325,1
-40,15808,-168,-833,-451,2748,1
572,15576,-940,-731,-668,3365,1
596,15536,-1612,-14,318,2321,1
116,15940,-1608,1016,802,1567,1
68,16364,-1260,1553,510,1368,1
304,16360,-1132,1857,-1015,1226,1
1056,16552,-900,2238,-2138,1418,1
1836,17340,-1088,2620,-2545,2284,1
2516,18240,-1444,2401,-1998,3262,1
3272,18344,-784,2315,-400,3331,1
2520,19532,-748,2753,1714,3569,1
844,21880,-648,2862,2233,4321,1
308,23944,-72,2374,87,3463,1
700,24880,-1180,456,-1753,1782,1
1952,22896,-3192,-1564,-751,-1791,1
1080,19032,-5620,-2159,-95,-4674,1
1100,15276,-5820,-1133,-1700,-5972,1
-156,13248,-5844,741,-1145,-8145,1
312,13612,-4848,1704,950,-11112,1
-2392,16560,-4212,2227,-500,-11973,1
-6236,19140,-1924,-248,-9370,-12437,1
-3732,17604,-424,-1887,-15042,-14858,1
220,17360,308,-3334,-13588,-14232,1
1248,18708,936,-5443,-9744,-13164,1
-936,17448,660,-7239,-6660,-14230,1
-1068,16404,-1204,-7953,-6098,-11581,1
528,14300,-1640,-8745,-4500,-11254,1
-1712,16752,-528,-10572,-1307,-9462,1
-5004,19032,-632,-13876,-5313,-8551,1
-4652,17504,-892,-17405,-5552,-9674,1
-4236,13084,232,-18229,-1755,-11820,1
-3484,11396,1156,-17180,-644,-12508,1
-3812,10060,2756,-15245,-563,-11629,1
-5144,10272,3856,-14124,1909,-10031,1
-4116,11248,5724,-12259,4681,-10350,1
-7388,11212,6556,-11033,5768,-11206,1
-7616,10348,5568,-9581,4903,-9880,1
-7636,8512,5784,-8096,5163,-7364,1
-7976,5984,5868,-6119,5519,-4238,1
-9328,5472,5340,-3646,4071,-2214,1
-10232,6192,4916,-2466,1754,-203,1
-9972,7244,5520,-1675,-441,1850,1
-9680,8280,6076,-1553,-1734,3675,1
-9780,9600,6280,-1869,-1651,4576,1
-9260,10192,7012,-1305,-543,4882,1
-9412,10044,7072,190,837,5458,1
-9768,10248,6260,1521,1540,5787,1
-11784,13032,6312,1017,1453,4812,1
-13048,16244,6168,-1153,1297,1762,1
-9568,14356,5464,-1142,2896,2396,1
-9428,11964,4996,-611,4419,962,1
-11360,10372,5528,-336,3219,486,1
-12068,9092,6252,234,1415,1473,1
-11176,9824,6280,1093,1255,1730,1
-11648,11720,6232,2079,353,2209,1
-10664,13620,5648,4449,2072,3032,1
-11148,16288,5172,6327,3449,4259,1
-11056,16428,4704,7479,3951,4835,1
-10460,16068,4564,7616,3764,6204,1
-10440,15592,4060,8103,3114,8140,1
-9456,15444,3428,8893,1963,10888,1
-7428,16680,1800,7456,2735,10908,1
-6652,15572,1396,5818,3527,11066,1
-5632,13904,976,5515,3097,11192,1
-5164,14848,1428,5184,1358,11911,1
-3396,14052,340,4808,1234,11202,1
-2704,14556,-296,4244,509,9120,1
-4368,13588,112,4142,-1461,8631,1
-2196,16584,-884,5296,-2399,11064,1
-2908,18256,-76,4742,-3395,9259,1
-2184,17928,-776,3376,-933,9824,1
-392,15916,-556,2210,2137,8084,1
-1604,14256,-404,2621,4179,5223,1
-1952,13712,-1324,3958,5034,5020,1
-1476,12880,-556,3454,4117,4477,1
-2012,13608,508,3541,3310,5263,1
-1732,14476,944,2791,2243,5862,1
-888,14860,1148,1737,1396,6490,1
-532,16136,1520,1409,1647,4438,1
444,17120,72,600,4129,1622,1
-460,16640,-1104,-1232,6538,497,1
-1876,15896,-2364,-1692,4543,1272,1
-3500,14380,-2668,-1300,766,1200,1
-1520,15124,-2152,-467,-1348,1467,1
128,15012,-976,330,-446,1620,1
156,15608,-176,1268,755,1672,1
-136,16484,792,1240,727,1600,1
-84,16524,1096,200,-112,2031,1
-232,15832,40,-197,-1339,1891,1
1028,15884,-436,121,-159,1367,1
564,16496,-1164,663,529,1867,1
816,16984,-1524,380,-301,2642,1
2224,17160,-664,751,584,1728,1
1876,19556,-1028,1862,1528,1396,1
1356,24288,-1636,1931,1482,2260,1
664,23640,-1344,1238,-456,2469,1
1304,21932,-2708,1265,273,562,1
1084,20964,-4884,1907,282,-2463,1
2000,17004,-4704,2291,1403,-7379,1
1640,15800,-4488,2927,4442,-10883,1
96,14892,-3444,1501,4482,-11929,1
-5760,16444,-1680,-1623,-5287,-12306,1
-3052,17476,-1092,-3724,-10769,-14227,1
-1860,16644,-1140,-4523,-10105,-13723,1
-2356,15732,-2732,-6232,-9012,-15648,1
-276,13496,-3100,-7119,-7556,-14734,1
-788,13888,-2264,-6880,-6792,-11546,1
-3988,18512,24,-11638,-9204,-7690,1
-5016,21392,-356,-17581,-10576,-7110,1
-2516,16488,196,-20665,-1562,-13774,1
-2740,10352,1928,-20181,2649,-17407,1
-4456,7080,4428,-14836,4826,-13510,1
-5728,7316,4900,-10304,5849,-10220,1
-8352,8584,5012,-7550,3438,-7023,1
-7408,7888,5948,-5595,4970,-5136,1
-9492,6864,5744,-3834,3370,-3022,1
-9708,5512,4752,-1950,1295,440,1
-10516,6516,4860,-842,-132,2683,1
-10856,8436,5080,-544,-1935,3900,1
-9324,9096,6012,-208,-883,4994,1
-9988,9668,6316,653,238,5245,1
-10244,10176,6608,2336,327,5297,1
-16048,15892,5580,299,121,-388,1
-10404,14300,4396,-454,2530,1037,1
-9288,10396,5012,-627,3793,-417,1
-12464,8412,5456,-308,1522,563,1
-12168,7780,6132,867,-92,1064,1
-11992,10400,6364,2346,1215,3467,1
-11336,13688,5756,4861,2558,4285,1
-11052,16000,4884,6947,5374,4823,1
-11296,15660,3700,8124,5832,7392,1
-9956,16328,2824,9318,4903,9950,1
-8832,15784,1336,9874,3515,12557,1
-7300,16236,-1984,4964,3379,11686,1
-6412,12616,-960,4597,2347,12070,1
-5052,12304,-116,6136,-1310,14453,1
-3332,14392,948,7446,-5828,13957,1
-652,19472,-680,7256,-7885,13924,1
124,19152,-876,4698,-2504,11126,1
-856,16368,868,2174,2796,7465,1
-1900,13664,412,2048,5344,6124,1
-964,14400,336,2246,6197,5157,1
-2220,14420,188,2331,4086,7081,1
244,14984,1476,1859,6383,6160,1
944,15084,2044,1825,11557,2690,1
-1284,15776,-324,34,12729,-737,1
-1996,15568,-2112,-565,10576,-779,1
-1212,15388,-2376,-873,7379,-397,1
-3180,15512,-2392,-1982,-2940,4209,1
412,13776,-1964,-1003,-5250,7130,1
652,14808,-1448,2038,871,4099,1
-412,16140,476,3165,2020,1541,1
-180,17076,1528,3282,-656,1700,1
1776,19540,856,1721,-3910,1822,1
3552,22200,-460,968,-2352,1741,1
2720,21960,-1284,-716,-516,2619,1
1648,19388,-4164,-990,-786,5603,1
808,17424,-5700,566,-3446,6805,1
1788,17532,-6752,3512,-1501,1805,1
1072,19656,-5580,4131,-369,-3170,1
1436,16636,-3272,3361,1056,-7095,1
780,15408,-2384,2611,4127,-9312,1
-3112,18004,-2648,480,1438,-11252,1
-5612,20072,-2324,-3663,-9554,-14107,1
-1012,19308,-3156,-6904,-12151,-14750,1
-1756,19260,-5476,-8032,-11894,-16175,1
-2100,19008,-7236,-7576,-10621,-14498,1
-4456,16456,-6864,-6642,-9026,-14161,1
-5876,16784,-4128,-8089,-11596,-15452,1
-3340,19240,-2684,-15250,-13466,-13613,1
-1416,16284,-1972,-19133,-10735,-13192,1
692,13880,592,-22963,-1567,-19923,1
-1552,7880,3652,-20156,227,-25083,1
-4760,4720,5568,-13186,6069,-17966,1
-5692,4088,5668,-8499,5660,-8018,1
-4652,2880,6044,-6300,6431,-5582,1
-9440,1428,6068,-2714,3544,-510,1
-9448,2504,4852,-76,2543,2751,1
-11072,4888,5712,1201,-1326,5359,1
-8876,6772,4316,2405,-1941,8469,1
-11888,11152,3080,1888,-2972,6239,1
-15980,18316,668,806,642,-153,1
-9616,15184,2672,-2708,-401,-184,1
-12596,10948,8108,-4689,-3061,3579,1
-12688,7192,8496,-492,749,3418,1
-13612,8364,8128,4068,2102,4912,1
-11520,12948,7988,7159,3015,9698,1
-10512,20212,6068,11093,7515,9224,1
-7844,20056,3412,11541,9347,7713,1
-8220,17140,-712,5442,11493,7085,1
-9588,11840,-2200,93,8721,8889,1
-9392,8868,-1072,1006,2294,13472,1
-6792,9104,-236,4454,-4812,17141,1
-5796,14420,-132,7590,-9857,18151,1
-2080,16752,-492,9613,-11022,16226,1
-1044,21388,-996,6239,-7634,14860,1
-4744,17292,80,3311,-333,8101,1
-988,14204,992,4778,3963,3437,1
-2544,14892,-576,5281,5597,2876,1
-3016,15436,-2060,5271,3697,5550,1
-952,15320,376,1838,2790,9081,1
-612,13960,1808,2638,2450,8859,1
648,13592,1872,2485,3465,5738,1
980,15928,396,1095,7755,1247,1
124,17568,-1364,233,10605,3441,1
-3072,16008,-2316,-910,6175,769,1
-4524,15372,-2940,-1388,-702,1817,1
-1796,15420,-2620,-1156,-6527,3306,1
1732,14772,-764,-174,-2931,3220,1
1584,14908,80,2095,2403,1125,1
-600,16004,564,2119,414,821,1
504,16496,1000,1294,-2442,1538,1
1888,17368,-180,726,-1545,1066,1
1964,16268,-788,955,1127,1311,1
896,15672,-1336,1664,1174,2213,1
1264,16372,-2228,2827,-400,2738,1
2724,18876,-2592,3727,-490,3286,1
3584,20340,-1124,3224,3115,2193,1
1228,22048,-1796,774,2052,4553,1
-400,20400,-3684,-787,-3717,6600,1
2136,19416,-5576,-617,-3804,3086,1
1688,16600,-6224,1199,-3907,-1747,1
1860,14984,-4392,2177,-3721,-6624,1
3028,15268,-2988,790,-643,-9690,1
-128,18716,-4020,-1252,-92,-6079,1
-4676,19900,-3712,-4475,-7033,-8439,1
-716,15652,-2496,-4607,-10082,-13233,1
604,15932,-2396,-4611,-5501,-14809,1
-432,15392,-3272,-5074,-3756,-14191,1
-1252,13768,-4888,-4134,-5124,-13731,1
2028,12440,-5216,-4307,-2928,-9513,1
36,11032,-4960,-2022,-1045,-7923,1
-6360,12940,-636,-4167,-6228,-6156,1
-5980,18164,364,-6812,-9249,-2079,1
-2284,10664,1368,-5338,-8113,1029,1
856,9176,1560,-1205,-3503,3003,1
1384,10036,1272,2093,2113,4355,1
-860,10128,500,3790,7371,7406,1
-3692,9808,-200,6301,11349,9608,1
-4872,15312,-1160,7625,16359,7501,1
-6908,20464,-2420,6563,14611,-753,1
-10208,26488,-2148,-1127,5664,-843,1
-7192,22100,-5280,-6368,-1542,3823,1
-1876,18464,-9576,-4865,681,4500,1
-4792,12108,-7836,-1784,-4349,-3022,1
-1956,8868,-5480,2901,-4392,-3366,1
1092,11464,-3940,4988,-4395,-424,1
2664,15256,-1660,5212,-2215,2527,1
2288,17528,2124,5003,-1404,4329,1
2140,19816,4360,4085,-632,6894,1
668,19392,3916,19,-105,8677,1
1248,16608,1100,-2487,3117,2519,1
336,15692,-1904,-2332,5819,-1694,1
668,15516,-2992,-2070,6109,-1241,1
2048,14404,-4252,-1434,6218,223,1
2120,13868,-4288,-19,5079,850,1
1632,15160,-4076,1301,5725,1706,1
-1056,16328,-2296,1882,5475,1567,1
-1152,17396,-704,1186,3931,2279,1
1108,17248,804,381,3869,643,1
2628,16560,1096,-212,6912,-870,1
1244,15432,236,-1128,7253,-56,1
908,15256,-1116,-1687,4757,1541,1
2016,15512,-2664,-1349,3770,3195,1
1712,15596,-3712,-767,4228,3135,1
1320,16100,-3212,419,5088,2540,1
-204,16568,-2360,694,5072,2055,1
-1388,16448,-1828,390,4023,2287,1
-1484,16232,-1888,242,2385,1218,1
-468,-14908,-5588,475,1112,-3803,1
-244,-14668,-5352,297,855,-4462,1
280,-15064,-5716,233,860,-4027,1
392,-15364,-5760,581,947,-3761,1
668,-15992,-5968,729,1131,-4818,1
1780,-14960,-6440,791,2163,-6824,1
3160,-13640,-7892,339,5096,-10439,1
4360,-13752,-8116,1076,7720,-10172,1
3980,-16784,-10260,2743,11618,-7766,1
4636,-16968,-9176,4964,14920,-4542,1
3944,-17632,-4684,7077,13759,-4852,1
3040,-18556,-2176,10025,8956,-6722,1
3192,-18436,-1180,10937,1256,-14324,1
3472,-18088,-504,9925,-5839,-21232,1
5296,-14432,-1176,6734,-9156,-25041,1
8248,-11552,-2984,3226,-9713,-23175,1
9912,-10380,-4476,1439,-7921,-19987,1
10116,-9344,-4976,1107,-5087,-16937,1
9956,-9268,-4260,1173,-1876,-14037,1
10068,-9256,-3336,1731,687,-10233,1
11416,-8308,-2904,2118,2124,-5939,1
10372,-8572,-2324,2087,1963,-4425,1
10720,-9208,-1576,1971,907,-3724,1
10480,-9340,-952,2664,80,-1978,1
11224,-8412,-80,2188,-225,-455,1
11412,-7320,-264,1394,-726,573,1
10892,-6672,48,858,-1015,2068,1
11148,-7196,-52,678,-1137,3081,1
11352,-7392,-368,263,-1412,4780,1
10932,-8052,-280,637,-1556,6665,1
9324,-8048,-564,511,-3064,8664,1
12608,-8756,-2012,-924,-4228,6659,1
22764,-14984,-9776,-2867,-464,-4753,1
15264,-21688,-3856,3828,4724,1391,1
8884,-15036,1160,5348,510,5730,1
9864,-12148,4,1318,-3147,1493,1
11552,-9592,-544,-1415,-6794,-2642,1
13640,-7040,-552,-1481,-5730,780,1
14720,-8884,300,-2019,-4372,6967,1
13316,-14632,-708,-5101,-5480,10962,1
10952,-21736,-4140,-7351,-7378,11759,1
7312,-22780,-7828,-6095,-9275,8119,1
6104,-17644,-8172,-892,-11805,838,1
7792,-11580,-6816,1720,-11742,-273,1
9384,-9144,-5348,891,-8847,4995,1
8476,-9492,-5132,-55,-4466,11698,1
7292,-11600,-5068,-471,-683,16094,1
4912,-12868,-4436,-332,1561,17408,1
3524,-13952,-3604,-125,3153,16928,1
2520,-15028,-4340,-1586,2726,15739,1
2196,-16752,-3868,-1962,783,12944,1
2504,-16876,-3092,-1557,-1293,10349,1
2616,-16100,-3768,-1211,-2937,8280,1
3032,-15556,-4588,-68,-3015,7082,1
3040,-14380,-3492,170,-2324,7974,1
2616,-13172,-4208,-1138,-698,7595,1
1120,-13140,-4208,-1938,-466,6317,1
-868,-13912,-3248,-903,-4193,5935,1
-952,-13116,-2004,-525,-8854,5546,1
968,-13600,-1000,-1524,-7495,3525,1
1936,-14156,-2544,-1355,-6902,1942,1
716,-14424,-5628,-618,-7240,1220,1
716,-14224,-6668,-908,-7240,844,1
1976,-14996,-5756,-901,-5497,1757,1
2096,-15240,-4856,-564,-3442,2977,1
1380,-15556,-4772,57,-1377,1892,1
1128,-15692,-3940,581,-325,1508,1
696,-15488,-3696,511,-775,830,1
-188,-15140,-3440,236,-598,508,1
-760,-14156,-3392,63,-1570,846,1
-724,-14572,-4272,-121,-2341,1386,1
-460,-15316,-4096,-108,-2135,1276,1
-660,-15600,-3592,-484,-2706,501,1
-696,-15628,-4576,-157,-2165,537,1
-1848,-16116,-5204,293,-1807,665,1
-2984,-16484,-6232,-117,-2041,1144,1
-2736,-17528,-6920,-1064,-563,3196,1
-2452,-17004,-7132,-1476,-281,3106,1
-1028,-14956,-7360,-2030,261,4556,1
-956,-17628,-7548,-3838,1588,6023,1
-1912,-22844,-5724,-3825,2442,3141,1
-2512,-22292,-3336,-2231,70,-2891,1
-1444,-17084,-4740,-1987,-2959,-8608,1
-596,-12568,-7172,-2811,-3891,-10077,1
1676,-13292,-8628,-1634,-1054,-11304,1
3776,-15868,-10344,479,6719,-11877,1
1160,-15504,-8576,1331,10387,-12218,1
3888,-16572,-7076,2878,15992,-13907,1
4540,-18520,-5936,6633,18968,-10601,1
856,-15448,-3820,8952,12517,-8225,1
-392,-14120,-4488,8177,4258,-7822,1
2240,-17584,-3700,11133,1000,-7855,1
4824,-17308,-5204,14091,749,-14370,1
4252,-13684,-4984,12980,-1419,-26169,1
4424,-8796,-4120,8840,-2633,-29049,1
5176,-6700,-1768,9168,-2504,-20360,1
7408,-6016,1044,7707,-2286,-14498,1
9632,-6520,2080,3666,-2909,-9926,1
10368,-7148,1672,1867,-2980,-4616,1
8884,-6300,1244,1236,-4405,-1671,1
10992,-6368,920,1442,-2978,1987,1
11484,-6756,248,1759,-1779,4650,1
10444,-7500,68,2001,-2480,7780,1
9868,-8480,184,2115,-4107,10357,1
11908,-9804,-384,255,-5817,8284,1
19344,-24264,-5288,488,3595,4482,1
9504,-18944,1084,4544,-2471,8267,1
12644,-14548,-876,664,-7266,339,1
11884,-11236,-156,-1567,-10209,-2229,1
13792,-8500,612,-4455,-8832,5392,1
11764,-12816,-552,-9471,-9677,11356,1
7952,-19596,-5948,-10366,-8609,11294,1
4708,-19344,-9348,-3571,-9892,6419,1
5772,-13908,-7004,1435,-10220,5054,1
6276,-10780,-3152,850,-7420,8173,1
5020,-11492,-2716,251,-4112,12939,1
3884,-13600,-4328,-3045,-911,16112,1
2340,-18056,-6136,-4044,-1208,11075,1
1076,-17168,-5556,-1464,-6236,5627,1
2036,-13552,-4508,-1695,-8668,3079,1
2016,-12736,-4892,-1910,-7762,3332,1
2208,-13432,-4176,29,-6861,6924,1
1340,-13408,-2768,998,-6330,7551,1
1012,-13020,-1364,874,-7933,5629,1
1240,-13260,-2200,-250,-8616,1726,1
1568,-14688,-3920,198,-8160,-274,1
544,-14096,-6596,758,-7433,-447,1
176,-14284,-7024,2,-6198,244,1
608,-15224,-6344,-788,-5384,411,1
1540,-15704,-4588,227,-3639,163,1
1176,-15104,-3212,-46,-2599,-1183,1
484,-15464,-3776,924,-2807,-18,1
-384,-14896,-4380,1160,-2673,960,1
-1216,-14588,-5112,730,-3260,1706,1
-172,-13860,-5604,-59,-3276,2543,1
932,-14544,-5156,-528,-1455,2362,1
-244,-14604,-4500,-1533,-1085,1954,1
-424,-15264,-4480,-1591,-1333,1845,1
-956,-15824,-4212,-1933,-1756,1694,1
-1732,-17240,-3668,-1899,-2029,1751,1
-2760,-17944,-3800,-1465,-2421,2360,1
-2804,-18760,-4500,-1413,-3584,2173,1
-1556,-20052,-6976,-599,-3082,2401,1
-1768,-19068,-8056,64,-1233,3059,1
-1948,-19396,-8876,-1219,-279,474,1
-1712,-18636,-8528,-1650,-249,-2854,1
-612,-14624,-7644,-3391,199,-7814,1
-576,-14060,-6504,-4303,-508,-10739,1
740,-14724,-7028,-2684,2289,-10820,1
1812,-15204,-8020,-1264,5612,-11684,1
2960,-16280,-8320,501,9901,-12659,1
2252,-16052,-7132,1445,14566,-10991,1
1864,-16048,-5660,4612,15168,-10115,1
1128,-14532,-4940,7672,11950,-8211,1
1844,-17396,-5356,10605,8177,-9856,1
4440,-19728,-5540,15565,6934,-11493,1
4316,-16788,-5032,16584,4484,-15156,1
2452,-11840,-3900,14137,-566,-21673,1
5276,-9100,-2132,10364,-3015,-22705,1
6216,-9268,-1148,9080,-3853,-21096,1
8160,-8168,632,6485,-4918,-17119,1
9612,-6584,1420,4202,-4761,-11375,1
9376,-5680,1996,4051,-4387,-5395,1
10180,-5240,1576,2195,-5205,-2046,1
10284,-6124,452,1290,-5609,-609,1
10988,-7232,248,1480,-5797,2248,1
11540,-8100,-940,682,-6101,2982,1
10148,-7656,-1152,-565,-6596,4601,1
13648,-9612,-2988,-811,-5378,-244,1
15068,-18688,-6952,112,2695,-28,1
11680,-13704,-1712,3658,-536,3721,1
11964,-12160,-968,725,-4312,821,1
13564,-9140,-76,1341,-4560,3790,1
14432,-9840,816,-684,-6501,6952,1
12312,-14852,-1488,-3688,-9237,8046,1
9476,-17660,-5628,-5938,-11517,7189,1
7516,-17088,-7076,-5288,-12891,5279,1
7792,-14236,-7796,-1884,-11483,3078,1
8364,-12068,-6512,980,-7192,6465,1
7024,-11952,-5256,1257,-3297,13269,1
5848,-13400,-4824,17,-584,17216,1
3736,-15772,-3684,-977,1193,16743,1
1916,-17516,-3340,-1223,-1703,11868,1
1532,-17736,-4140,-956,-6665,3894,1
3132,-14492,-4628,-423,-9606,1779,1
4252,-13580,-5380,-477,-7113,4666,1
2992,-13340,-5000,-560,-4942,5958,1
1864,-14204,-3968,402,-6582,5438,1
2372,-13876,-2600,427,-7494,3842,1
1608,-13276,-2724,332,-9488,1891,1
2120,-12644,-2960,145,-10046,287,1
2504,-13432,-4668,-133,-8251,835,1
1192,-14468,-6360,-315,-7307,884,1
1656,-15012,-6548,160,-6324,1043,1
2220,-15284,-5952,379,-4660,560,1
2692,-14828,-4924,1146,-3255,474,1
1520,-13868,-4164,1399,-2733,508,1
1236,-14056,-4608,1416,-1353,1470,1
148,-13964,-4120,559,-973,1618,1
1100,-14036,-3812,-371,-1782,1204,1
1964,-14452,-4700,-475,-797,1463,1
676,-15836,-4252,-918,-659,2151,1
-76,-16368,-3592,-1069,-947,1682,1
-520,-16556,-4616,-1316,-1270,2536,1
-940,-18416,-5952,-1542,-976,3935,1
-1480,-19460,-5856,-1231,-1070,3858,1
-1168,-20540,-6244,-1253,-2979,3295,1
-1000,-21152,-7252,-262,-2522,3585,1
-1476,-19076,-9636,-193,-1147,2515,1
-2172,-16132,-11640,-1278,-430,551,1
-1908,-12244,-9916,-3979,128,-944,1
-1092,-11256,-7200,-6827,-1622,-5307,1
204,-12860,-5632,-6854,-1549,-5658,1
840,-16244,-3900,-3582,2621,-5961,1
1160,-17568,-4076,385,7135,-8905,1
680,-17336,-4760,2870,7528,-10480,1
1320,-15672,-6704,4332,7609,-11226,1
1588,-14040,-8460,4170,5662,-12681,1
2432,-12344,-9696,3485,5615,-14171,1
3612,-11576,-9120,3738,10459,-11446,1
2780,-14056,-7824,5333,12065,-8226,1
5236,-17380,-5660,9260,12523,-6373,1
5408,-17680,-5616,14161,11471,-8195,1
4160,-14860,-3648,15694,6896,-16325,1
4312,-11684,-1984,11705,887,-23060,1
7148,-9936,-124,7305,-748,-19544,1
8096,-9940,100,6973,-1985,-15570,1
8696,-9744,1156,4533,-3813,-15586,1
10452,-6944,2076,3299,-3829,-10689,1
10216,-5460,1044,1953,-4863,-5798,1
10432,-5736,416,1760,-4103,-2031,1
12032,-5540,-356,1850,-2377,1866,1
11408,-5868,-220,1793,-645,4589,1
10776,-6276,1004,1094,-1164,6476,1
11180,-7372,1368,1059,-2340,9784,1
11532,-8072,820,-598,-4229,9263,1
26744,-15952,-11468,-3668,4111,-6421,1
7040,-17144,1960,3050,-605,3137,1
14168,-13712,1260,426,-4154,1311,1
12652,-11480,1916,-2007,-10075,-2611,1
14208,-6172,2556,-3371,-12030,1194,1
15112,-9856,92,-5778,-10438,6399,1
11952,-15928,-4392,-7245,-10866,9817,1
8332,-18684,-9352,-6050,-10197,11535,1
6392,-15504,-9176,-244,-10205,8948,1
6912,-12024,-6484,1799,-7748,8665,1
7012,-11372,-4568,968,-3348,14522,1
5704,-12740,-3848,-182,780,18571,1
3684,-14808,-4388,-1514,1229,16435,1
2696,-16764,-4196,-2591,-745,12478,1
2300,-17392,-5052,-2834,-3695,8789,1
2496,-16404,-3920,-982,-5929,5735,1
2416,-12828,-3184,217,-7296,5003,1
1936,-12336,-3408,-349,-7614,5623,1
768,-13784,-2852,-792,-8919,4681,1
752,-13908,-2952,-1239,-11010,3127,1
1672,-14116,-3120,64,-10882,1925,1
2472,-13068,-4092,289,-8546,1094,1
892,-13096,-6204,764,-7866,867,1
1392,-14564,-6756,110,-5899,1482,1
1872,-15900,-5280,1267,-2684,2231,1
1852,-15836,-4216,980,79,529,1
452,-14708,-3476,859,-626,-195,1
-504,-14716,-3408,364,-2779,-755,1
-1092,-14700,-3724,-539,-4161,-1264,1
52,-15124,-4004,-162,-3096,152,1
316,-14820,-4996,-253,-2372,826,1
596,-14792,-5204,-636,-1369,1270,1
-100,-15160,-5320,-1271,-691,1383,1
-944,-16368,-5740,-2095,-793,2186,1
-1336,-16796,-5444,-2506,-734,3302,1
-1760,-16900,-5260,-2653,-882,3756,1
-1772,-17388,-4488,-3016,-1305,2143,1
-960,-17564,-4976,-2891,-2788,1480,1
-196,-17892,-5684,-1907,-2216,2862,1
-456,-18708,-6264,-986,-442,4630,1
-2016,-20832,-7464,-626,-120,3468,1
-968,-17900,-9268,-31,-469,-236,1
-1080,-12752,-8880,-3385,-1097,-4761,1
-380,-13112,-7468,-5677,-2356,-7820,1
252,-15792,-6704,-4214,228,-9375,1
540,-18148,-4604,-2,3848,-9171,1
860,-18612,-5024,3723,5960,-8802,1
2704,-16732,-7480,5791,8262,-10983,1
2976,-15064,-8624,5186,7852,-14864,1
2460,-13704,-8780,4613,5934,-16385,1
3136,-13248,-8760,6025,11416,-11457,1
3036,-13200,-7176,6667,13631,-8119,1
2400,-17564,-5000,10562,12311,-6933,1
5692,-19132,-6200,16544,12563,-10342,1
2484,-14064,-3508,16772,4549,-20802,1
1832,-10836,-1224,11845,-4370,-27363,1
5696,-9268,576,8383,-7066,-23462,1
8268,-8860,1128,6739,-5567,-17677,1
9376,-6636,1444,6112,-4936,-10512,1
9464,-3908,1520,2984,-5475,-4597,1
10500,-4852,160,1933,-3699,154,1
11328,-5616,0,1416,-924,2678,1
10736,-6660,808,2379,168,7227,1
9284,-7576,1252,2522,-2386,9749,1
10572,-8560,428,-208,-4048,9784,1
20464,-14588,-3228,-185,-326,658,1
13312,-23252,-1996,5123,189,3540,1
10556,-15056,2728,5346,-3219,1025,1
13908,-9220,2288,1963,-6562,261,1
14308,-6780,2024,-2463,-7841,1693,1
12644,-9516,2504,-3922,-6762,5496,1
13660,-14812,72,-5822,-6811,7430,1
9796,-18772,-2596,-8614,-10795,8642,1
7768,-18572,-5720,-6645,-12699,4051,1
7544,-14004,-5884,-2205,-12108,3301,1
8252,-10920,-4932,-2261,-8284,7972,1
8272,-12516,-5224,-2609,-3875,14442,1
4936,-14180,-5664,-2284,-1151,17595,1
3572,-13756,-5048,-2145,1214,16874,1
2392,-14888,-4508,-2644,529,13105,1
1864,-17080,-4216,-3432,-1966,9758,1
1192,-17608,-4300,-1605,-5538,5470,1
1252,-15672,-3208,-228,-8840,2204,1
1204,-13996,-2816,238,-11696,1311,1
1628,-12564,-3096,-245,-12190,644,1
572,-13456,-4132,566,-12978,1456,1
1712,-12464,-4756,307,-11679,838,1
1340,-11976,-5508,-251,-8969,697,1
1296,-12816,-6260,-504,-7108,1694,1
1024,-13708,-6476,-377,-5997,3023,1
2588,-15108,-5852,-383,-3855,3565,1
1664,-16596,-4864,1213,-1228,3681,1
1076,-15808,-3620,1710,1112,2907,1
-700,-14416,-3808,1128,149,1590,1
-1096,-14152,-3688,-94,-4290,1450,1
-76,-14808,-4324,-531,-4256,1358,1
324,-15220,-4252,-177,-2598,2225,1
-128,-15280,-4824,-310,-2308,2146,1
-140,-14640,-5292,-988,-2281,1357,1
-516,-14248,-4700,-1833,-2091,1163,1
-1304,-15196,-4420,-2282,-2088,1610,1
-1776,-17256,-4832,-1936,-542,1335,1
-3120,-17448,-3856,-1238,-1587,1768,1
-2404,-16840,-4568,-752,-2342,1801,1
-1920,-16104,-6016,-253,-736,4179,1
-2336,-15248,-6884,141,135,6301,1
-2852,-15936,-6888,-1314,-1221,5593,1
-1736,-19816,-7196,-2109,-1165,3811,1
-1468,-22980,-7868,-1105,701,1659,1
-1904,-20920,-7892,651,2080,-1087,1
-2596,-15980,-9460,673,2434,-3211,1
-2788,-13680,-9304,-1474,1482,-6204,1
-2116,-12712,-8256,-4116,-1297,-9488,1
652,-13796,-7932,-4941,-3105,-10594,1
3608,-16324,-8396,-3680,1233,-10620,1
4116,-18604,-7280,-831,6465,-10478,1
460,-17412,-7260,1589,11526,-9833,1
208,-16520,-5500,1719,12066,-10434,1
-308,-15488,-4820,3043,12407,-12362,1
1100,-15820,-5036,4569,11863,-11696,1
1100,-14996,-5468,6027,8183,-10420,1
972,-14584,-6320,7220,3265,-9031,1
2484,-15048,-6228,8119,2916,-9557,1
5564,-17696,-6868,11452,7121,-10579,1
4628,-18140,-6720,14495,8564,-12016,1
2728,-14160,-5720,15100,7501,-16543,1
1980,-9948,-4480,12062,2584,-23248,1
3312,-9564,-3380,7725,-143,-30623,1
6952,-7616,-1424,7248,743,-21848,1
7572,-7516,736,6612,-1160,-17290,1
9688,-8472,1848,5548,-1022,-14521,1
9888,-8564,2312,3941,-1697,-11829,1
9220,-7232,2132,2537,-3057,-9211,1
10124,-5924,2532,1457,-3441,-5843,1
10600,-5928,944,1519,-3837,-1600,1
11612,-6008,-112,1821,-2144,1083,1
11424,-6268,-512,1898,-1284,2847,1
11280,-7472,-20,2006,-380,4707,1
10976,-8408,712,2717,-1017,6664,1
10008,-7800,1260,2059,-3094,8957,1
12892,-8572,452,764,-4405,7294,1
22428,-12424,-5904,-601,-349,-2057,1
16160,-22372,128,4271,3296,1314,1
9632,-15264,3452,4546,-3289,4432,1
12776,-13876,1540,1607,-5720,134,1
13388,-11000,116,-494,-10633,-3048,1
14536,-8244,856,-2304,-10347,-548,1
15112,-8488,1036,-3888,-9645,4756,1
13216,-13616,-424,-6253,-9662,8362,1
10332,-16984,-3256,-7512,-10534,9981,1
8320,-17580,-6636,-6436,-10551,8611,1
6892,-16264,-7444,-2592,-10752,7094,1
8000,-13668,-6768,856,-9475,6946,1
8040,-12272,-5460,1366,-6585,10895,1
7856,-12180,-4420,379,-4104,15216,1
7076,-13232,-4100,-149,-803,17895,1
4648,-13424,-4716,-1228,1127,18773,1
2852,-13924,-4916,-2670,1065,18157,1
1824,-15724,-5324,-3983,-32,14765,1
1292,-17684,-5472,-3687,-2584,11741,1
1304,-16800,-4532,-2672,-5145,7987,1
1656,-13964,-3360,-1966,-6154,5314,1
2212,-12616,-2420,-1490,-6329,4978,1
1324,-12424,-2072,-895,-8034,5849,1
1932,-12376,-2284,-978,-8535,5530,1
2288,-12948,-1908,-858,-8348,4142,1
1584,-13948,-2436,-1106,-9354,2567,1
1784,-14724,-2424,-1118,-9636,1214,1
1776,-15176,-4124,-1493,-9457,8,1
1364,-14992,-6288,-729,-8821,-2208,1
528,-13840,-6828,-1860,-7759,-3115,1
492,-15028,-6444,-1644,-8354,-2973,1
1772,-15292,-5608,-794,-7980,-2372,1
2992,-14896,-5288,231,-5283,-1769,1
2320,-13996,-4868,1181,-2373,-293,1
1132,-14076,-4940,735,-1280,379,1
240,-14756,-4668,820,-1123,1308,1
-772,-15040,-3988,493,-2266,1623,1
-344,-14504,-4140,-312,-2953,1010,1
372,-14220,-4648,-831,-2946,958,1
988,-14504,-5084,-1012,-1757,2209,1
1016,-14676,-5020,-1018,100,3396,1
-88,-15352,-4600,-1129,172,3404,1
-464,-16608,-4540,-1117,254,2446,1
-1908,-16780,-4152,-718,568,1272,1
-1940,-16080,-4160,-1210,-1262,256,1
-1140,-16712,-4696,-1276,-2371,686,1
-772,-18816,-6688,-1154,-2490,2700,1
-440,-20684,-8328,-328,-639,5065,1
-712,-20328,-8320,796,2243,6109,1
-1680,-18500,-9260,60,2503,4372,1
-2248,-16488,-10164,-1906,1606,1959,1
-1756,-15404,-10684,-4478,624,-136,1
-632,-15304,-10276,-6117,452,-1032,1
820,-15304,-9292,-6460,1163,-2507,1
2388,-14744,-8540,-5323,3780,-5036,1
584,-14464,-7228,-3185,6821,-8080,1
-620,-14408,-6364,-377,7126,-6817,1
332,-16668,-4552,3315,8856,-7791,1
4244,-19388,-5116,8435,15035,-5028,1
5560,-18712,-8096,10629,18713,-1450,1
4584,-17908,-10460,11243,18598,-4727,1
448,-13600,-9148,8961,9436,-9391,1
-844,-12556,-8288,8521,3959,-10861,1
1404,-12400,-7052,8790,4365,-8629,1
3056,-13052,-5988,9599,6322,-10605,1
4464,-15400,-5336,12107,9288,-15696,1
2256,-14928,-4740,14222,6612,-21756,1
3608,-11964,-2376,13301,1634,-30109,1
6252,-8920,-224,10907,-507,-26265,1
6916,-7320,1992,7876,-3815,-19142,1
9080,-8116,2088,5935,-2477,-14549,1
8332,-8272,1312,6209,-2673,-11683,1
8564,-7116,1836,4440,-3663,-10496,1
10004,-6048,1664,3580,-4533,-7333,1
10096,-5360,2164,2735,-4998,-3586,1
10960,-6344,1032,2637,-4440,-146,1
11484,-6460,1288,2547,-3769,2332,1
11644,-6996,880,2578,-2570,5077,1
10268,-7232,548,1932,-3656,6346,1
9756,-7440,424,744,-5251,7346,1
11100,-8512,-492,-1496,-5722,7383,1
21900,-15388,-4384,-232,-88,668,1
14408,-23832,-3432,2060,4728,1528,1
8464,-16488,1180,4461,-1313,4908,1
12228,-13072,1060,1574,-4163,795,1
12964,-10908,524,-771,-7010,-2522,1
14036,-7880,1600,-949,-7862,13,1
15252,-8936,1756,-3031,-6428,3374,1
13888,-13092,352,-5268,-6797,8025,1
10856,-18460,-2376,-8062,-8553,10730,1
8152,-20288,-5172,-9483,-11312,9472,1
6452,-17704,-6168,-5651,-12795,4998,1
7296,-14344,-6276,-1184,-12242,3065,1
7428,-11472,-5500,61,-9595,6211,1
6956,-11020,-4824,-994,-6556,12063,1
5868,-12704,-4396,-1642,-3770,17059,1
4516,-14300,-4472,-1446,-475,19562,1
2212,-15716,-4144,-1691,827,18546,1
1792,-16544,-4380,-1799,-139,14292,1
1480,-17236,-3336,-1060,-2725,9858,1
1728,-15864,-3992,-880,-5584,5939,1
2228,-14728,-4156,-813,-6879,3814,1
2492,-13760,-4200,-532,-6243,4176,1
1860,-13284,-3544,-712,-6022,5573,1
1104,-13184,-2848,-1886,-7942,4529,1
1188,-14000,-2552,-2227,-9380,2507,1
948,-14592,-2476,-1723,-10503,617,1
804,-14152,-2232,-955,-11525,-596,1
436,-13600,-2684,-842,-12279,-1362,1
1016,-14724,-4548,-621,-11826,-1457,1
196,-14664,-5544,-71,-12868,-1306,1
1720,-14008,-6612,139,-10747,-375,1
1596,-14128,-6640,-77,-8762,-30,1
2044,-14128,-5976,-26,-5631,510,1
1836,-15352,-5272,869,-3173,909,1
848,-14988,-4344,1245,-2706,1493,1
1436,-14848,-4560,892,-1693,1158,1
808,-15216,-4328,953,-1450,586,1
-376,-14700,-4084,816,-1937,954,1
-644,-13932,-3884,163,-2748,819,1
-292,-14040,-4900,-713,-2549,1076,1
-320,-14480,-5356,-1441,-1501,1814,1
28,-14700,-5128,-1639,-887,2008,1
-236,-14296,-4440,-1539,-907,1836,1
-640,-14860,-4732,-2227,-1237,1281,1
-1044,-16140,-4928,-2369,-1066,1569,1
-1484,-16584,-4432,-2002,-768,1944,1
-1880,-17300,-4076,-1688,-943,2674,1
-1984,-17572,-4772,-1966,-460,3349,1
-1804,-17940,-6048,-2580,668,4411,1
-1216,-18656,-6636,-2740,646,4784,1
-1396,-19332,-6364,-2425,281,4268,1
-2104,-20048,-5876,-1842,293,2482,1
-1632,-20044,-5756,-1453,-759,490,1
-1912,-19136,-7340,-656,-691,-624,1
-2348,-16364,-9384,-406,-384,-1388,1
-2112,-12572,-10380,-550,125,-1882,1
-1684,-10520,-10680,-2388,-931,-3473,1
-160,-11192,-10400,-4148,-2983,-7123,1
1576,-14364,-9596,-4745,-2361,-9425,1
3680,-17944,-6456,-2462,2164,-11058,1
2816,-18652,-4180,1600,5325,-10378,1
1700,-16888,-5084,3619,9773,-9092,1
1280,-16480,-6916,4786,13625,-10985,1
-104,-16424,-8340,5632,11200,-10669,1
-156,-15036,-8420,7206,5277,-11393,1
1284,-13640,-8696,7603,3317,-12464,1
3020,-14520,-8624,7820,3664,-13780,1
5544,-16412,-8144,10013,6271,-14238,1
4868,-16296,-7136,13029,11108,-14976,1
2992,-12972,-6628,13494,12021,-15503,1
2028,-9796,-5024,11730,8692,-20707,1
4224,-9500,-2184,10778,3964,-26320,1
7164,-9932,-1084,10299,3626,-21555,1
7664,-9964,1508,8980,1031,-16687,1
8780,-8484,2976,7662,-1010,-13158,1
8944,-6728,3092,4865,-2865,-10466,1
9964,-6332,2964,2974,-3568,-6571,1
9992,-5244,2768,1921,-3666,-3460,1
9488,-5576,1644,1396,-4503,-946,1
10952,-5988,1472,1385,-4082,2374,1
10600,-6296,1308,1081,-2900,5879,1
9464,-5688,1680,-33,-5114,8525,1
27364,-13528,-8156,-1811,2669,-6609,1
6772,-16264,-944,2014,-1881,4288,1
12192,-16608,156,1759,-2035,3659,1
13180,-12864,660,1333,-6843,-235,1
13492,-7040,1692,-142,-7355,2780,1
14272,-9736,2456,-1611,-7219,6194,1
12984,-13932,-84,-3951,-9580,6454,1
10176,-15680,-2816,-5679,-11768,5235,1
8948,-15124,-4184,-6167,-11841,5894,1
8388,-14472,-5508,-5901,-9456,9106,1
7032,-15312,-7412,-2449,-7283,12198,1
5160,-14096,-7100,1614,-5573,15238,1
4112,-13144,-5156,2050,-3087,15537,1
3632,-13760,-3636,166,-82,16024,1
2548,-15940,-3768,-1687,384,16060,1
1896,-18556,-4820,-2160,-2066,13722,1
660,-16400,-3976,-249,-4409,7127,1
1184,-13408,-2936,-1256,-7623,2981,1
1136,-12960,-3176,-2227,-9675,1564,1
1232,-13084,-4564,-2771,-9824,-246,1
840,-13164,-4212,-728,-11346,155,1
1196,-13172,-3896,-430,-10025,1563,1
1708,-13356,-3688,-584,-7773,1942,1
1376,-14120,-5488,-358,-7743,1695,1
904,-12980,-6108,-952,-7895,675,1
996,-15656,-4920,-536,-6466,1019,1
1580,-15876,-5036,662,-3671,202,1
356,-15588,-4504,806,-2997,-824,1
-372,-14120,-4340,526,-3974,-200,1
684,-14008,-4596,553,-2640,851,1
-116,-14476,-4580,261,-1924,1389,1
-708,-14516,-4644,-394,-1440,969,1
-244,-14472,-5332,-865,-653,1182,1
-228,-14440,-5368,-1763,-463,712,1
-252,-15108,-4864,-2678,-509,121,1
-520,-16512,-3828,-2927,-336,144,1
-1392,-17924,-3100,-2275,-1095,300,1
-728,-17224,-4068,-992,-1669,534,1
-576,-15708,-5508,-672,-889,1788,1
-264,-16652,-6592,-798,220,4421,1
-1384,-16824,-7096,-1468,368,4935,1
-1032,-18420,-7316,-2604,252,6137,1
-804,-19488,-8696,-1869,1353,4966,1
-608,-19188,-9292,-1233,871,1534,1
-568,-14700,-9232,-2018,621,-2633,1
-592,-11844,-8704,-3245,-928,-6021,1
-220,-13336,-7704,-2867,-1771,-7608,1
1424,-16776,-6712,-139,2352,-9130,1
1936,-19044,-4780,4740,7095,-8703,1
1872,-17628,-6696,7027,12121,-9344,1
2380,-17888,-9816,7061,12018,-11042,1
484,-16060,-10224,7124,6652,-13259,1
2016,-14196,-11152,6830,4197,-14807,1
2792,-12264,-9796,6638,6435,-13816,1
5172,-14144,-7756,9009,12112,-13150,1
5264,-15584,-6636,12872,15377,-15708,1
32,-11668,-3332,13257,8111,-21908,1
500,-10256,-184,12545,3682,-23700,1
7320,-7356,2068,8226,2188,-18605,1
9532,-6864,3924,4884,-965,-9377,1
8188,-5996,4376,3300,-2422,-6356,1
9160,-5756,3356,1321,-4124,-3127,1
9696,-5320,2028,-227,-5892,-222,1
10864,-6576,1880,430,-3451,4919,1
10508,-7076,8,-306,-3094,7385,1
13264,-10752,-3280,-1359,-2418,3503,1
14724,-19160,-4932,82,2007,1111,1
10008,-13000,-2152,1018,-871,922,1
11924,-14736,1068,3580,1774,4360,1
13412,-11204,2080,1894,-1077,3669,1
13300,-9552,1648,-2685,-4407,2636,1
15204,-12816,1768,-2892,-3866,6604,1
13192,-16396,248,-6129,-7618,6749,1
10696,-17636,-1416,-7972,-11402,4655,1
9176,-15380,-2384,-7300,-13075,3832,1
8528,-13736,-4200,-6901,-13022,5985,1
8184,-14220,-5492,-3962,-9048,9994,1
6840,-13776,-6604,-1202,-7398,12796,1
5140,-12388,-5328,-569,-5246,12634,1
4296,-11616,-5504,-1116,-1766,12678,1
3084,-13536,-6128,-2629,-387,13654,1
2524,-17812,-7040,-2782,-773,13775,1
1180,-17344,-6136,568,-2541,9952,1
1928,-13532,-3512,291,-3184,7319,1
1600,-13444,-3396,-887,-4046,5980,1
380,-13452,-3496,-965,-5804,5668,1
252,-13444,-3468,-1039,-6876,6017,1
600,-13624,-2012,-166,-7872,6201,1
2264,-13204,-2024,-763,-4896,4602,1
-92,-13712,-4232,-1059,-6942,1029,1
144,-14444,-5580,-577,-9667,-854,1
1636,-15068,-6184,55,-6546,-480,1
2048,-15296,-6352,1900,-243,2858,1
1076,-13916,-6304,1146,2969,3363,1
-144,-14744,-4928,210,608,1649,1
-1080,-15128,-2832,-220,-2269,527,1
80,-15304,-2728,-311,-2549,178,1
40,-14988,-4060,131,-897,1343,1
-692,-14572,-5472,31,334,2362,1
-1300,-13744,-5356,-1005,56,3360,1
-1508,-14508,-4864,-2134,-1263,3023,1
-688,-15840,-4096,-2306,-1111,2506,1
-1140,-16056,-3768,-2322,-1230,2404,1
-1336,-17148,-4108,-1928,-932,3081,1
-3148,-16744,-3104,-1624,-1496,2703,1
-2972,-16500,-3500,-1586,-3924,1782,1
-1432,-16420,-5928,-2026,-3496,1867,1
-796,-16524,-7412,-642,-661,4302,1
-1248,-16588,-6952,-127,1715,4946,1
-2328,-18636,-7484,-301,1503,2548,1
-3136,-17576,-8264,-713,1390,-948,1
-2724,-14080,-8396,-1169,2519,-2409,1
-2784,-12428,-8688,-1914,3793,-5119,1
-2148,-12524,-8828,-2276,3793,-7736,1
-1328,-14060,-9024,-625,4022,-6135,1
308,-15636,-7748,834,5535,-5149,1
2720,-15544,-7012,886,7900,-10186,1
948,-14984,-5660,1187,6520,-11922,1
176,-14832,-5640,1347,6093,-12678,1
-540,-15596,-6648,2807,5628,-9070,1
-200,-15048,-7168,6036,4639,-2361,1
2540,-13204,-8024,4823,1925,-8439,1
360,13392,-7628,-177,-789,-17,2
528,13536,-7568,-37,-973,114,2
416,13700,-7900,-17,-1091,185,2
140,13552,-7428,-71,-1317,-29,2
304,13624,-7760,-134,-1345,-219,2
532,13764,-7712,-268,-1136,-291,2
632,13688,-7804,-272,-826,-211,2
420,13684,-7788,-115,-730,106,2
396,13572,-7796,7,-687,273,2
280,13820,-7548,153,-800,322,2
12,13760,-7504,192,-1130,186,2
400,13848,-7468,133,-1342,344,2
368,13856,-7588,72,-1331,412,2
412,13796,-7624,-55,-1388,454,2
444,13732,-7620,-157,-1372,257,2
392,13744,-7704,-222,-1324,453,2
368,13540,-8020,-300,-1263,326,2
432,13536,-8164,-370,-1174,503,2
480,13360,-8124,-296,-1042,125,2
584,13208,-8044,-155,-803,46,2
392,13364,-7852,-94,-628,-150,2
368,13456,-7752,-16,-766,-282,2
280,13628,-7540,-39,-315,-6,2
280,13832,-7688,-82,-227,-169,2
264,13984,-7324,-173,-218,-118,2
196,13904,-7088,-310,-362,-142,2
340,14052,-7200,-432,-566,-143,2
428,13948,-7272,-527,-681,-87,2
452,13856,-7372,-491,-649,-82,2
472,13756,-7584,-364,-665,-105,2
468,13576,-7492,-222,-743,74,2
552,13864,-7292,-72,-783,6,2
508,13860,-7444,-55,-816,396,2
456,13728,-7348,-61,-839,401,2
440,13656,-7392,-42,-851,408,2
444,13588,-7572,37,-887,375,2
356,13748,-7208,74,-952,248,2
536,13812,-7336,57,-1276,216,2
696,13648,-7648,55,-1277,288,2
608,13812,-7636,56,-1277,427,2
548,13804,-7492,30,-1279,379,2
640,13760,-7488,41,-1037,347,2
560,13668,-7528,104,-1077,332,2
920,13856,-7636,156,-1006,353,2
996,13832,-7916,297,-869,315,2
1152,13992,-7932,510,-593,356,2
1252,14220,-7540,667,-287,607,2
1420,14476,-7256,906,-7,1244,2
1036,14184,-6516,1076,37,2274,2
912,13440,-5936,1199,-528,3543,2
672,12744,-6188,1425,-2313,4601,2
1204,13420,-7052,1494,-4601,4514,2
1948,14580,-7968,940,-5510,4370,2
2192,13816,-8732,-93,-5102,3706,2
1984,12352,-8888,-1000,-4371,1843,2
1564,11096,-8476,-1741,-3389,189,2
1356,10568,-8240,-2026,-2458,-841,2
848,11108,-8020,-2543,-2334,-2418,2
492,12464,-9292,-2833,-3132,-4348,2
872,15300,-12236,-2189,-3921,-5788,2
1304,16128,-11332,-1006,-3971,-4464,2
3840,13540,-7200,-117,-2848,-307,2
3432,12672,-5452,446,-1318,669,2
2408,12840,-4688,-132,726,-379,2
2144,13244,-6448,-1180,4453,-1392,2
388,13460,-8348,-1555,7131,-2869,2
-1336,13756,-8700,-1206,8150,-3375,2
-2424,13696,-7972,-1193,6456,-2565,2
-2668,12660,-7268,-1059,3560,-1673,2
-2348,11976,-7588,-170,-71,-740,2
-540,12652,-7972,1143,-2878,301,2
1356,14048,-8164,1377,-1830,171,2
1080,14468,-7600,1085,167,45,2
476,14328,-7284,694,1414,-183,2
-48,13732,-7128,363,1098,21,2
-536,14204,-7140,-168,298,41,2
-368,13636,-6464,-753,-961,574,2
-472,12932,-6192,-703,-1983,2269,2
248,12644,-6204,-715,-2864,3092,2
828,13276,-6628,-1126,-2963,2976,2
1144,12860,-6732,-1610,-2570,3246,2
1372,12704,-7072,-1658,-2174,3486,2
936,12828,-7108,-1494,-1743,4038,2
224,12044,-6428,-1594,-1920,5085,2
-648,11200,-7008,-1430,-2866,5621,2
-1188,11432,-7852,-1047,-3816,5468,2
-1284,10456,-8092,-377,-3852,5397,2
-960,9720,-8084,389,-4272,4869,2
60,9104,-7408,1254,-4559,4696,2
1744,10936,-7040,2489,-4570,4833,2
2804,16956,-9784,3754,-4353,6073,2
1740,23680,-12444,2995,-4531,1424,2
4540,23280,-9608,3264,-1706,-441,2
2788,20168,-6728,1089,260,23,2
3516,16488,-5208,-567,-294,-1744,2
4136,17260,-6500,-2482,-2175,-2700,2
3580,17316,-9396,-3735,-2818,-996,2
2960,15296,-9540,-3231,-2652,772,2
3300,14032,-7604,-2130,-2042,2923,2
2772,12876,-6104,-2207,-2037,3789,2
2592,11684,-4988,-2685,-2720,3556,2
2636,11308,-4984,-3455,-2222,3021,2
2216,11740,-6428,-3574,-1437,1671,2
1660,12544,-8928,-2653,-757,-831,2
1376,12264,-10932,-340,-679,-2388,2
1928,10360,-10556,3091,-2126,-984,2
1800,8704,-10064,8285,-3877,2125,2
3408,11120,-9324,12797,-6533,6540,2
5592,15356,-9008,14089,-7572,6894,2
6008,18292,-8464,11230,-6102,4151,2
5524,15860,-7208,8683,-563,3223,2
3116,14704,-5940,6269,1990,2376,2
1736,13452,-6224,3798,673,-313,2
1784,11456,-7212,2117,-791,-1766,2
864,10528,-8276,1779,-3257,-2129,2
1708,10496,-8532,1602,-5055,-1034,2
2792,10536,-8032,333,-5188,-645,2
3260,10152,-7652,-1397,-4334,-1515,2
3120,8560,-8120,-2407,-2645,-1880,2
3700,8548,-9120,-3436,952,-2067,2
2604,8544,-9428,-4529,2999,-4137,2
3328,9624,-9984,-4943,5756,-5782,2
1420,8564,-8996,-4421,6902,-6343,2
1932,9068,-8100,-3179,6197,-4885,2
1444,10460,-7804,-2798,5212,-4101,2
1308,12688,-8400,-2418,3871,-3567,2
1464,13104,-7464,-2165,1870,-1766,2
1984,13008,-6176,-2221,-320,338,2
3044,13064,-5848,-2771,-1736,366,2
3308,12264,-5756,-3523,-2100,-411,2
3696,11428,-6504,-3978,-834,-1503,2
3640,11460,-7980,-4203,219,-3421,2
2624,11736,-8896,-3452,-386,-4525,2
2636,11804,-8212,-2012,-1744,-3106,2
2812,13028,-7936,-1356,-3869,-556,2
4644,13876,-6628,-802,-7285,1269,2
3860,19088,-9568,838,-6635,1245,2
-1924,22992,-9716,4282,-5015,-434,2
-2080,24052,-8252,2078,-6185,3712,2
-724,13872,-7964,2071,-9358,9530,2
2800,18588,-16568,6515,-10963,8768,2
-108,20696,-14648,3258,-8706,6256,2
3596,15364,-11556,313,-2218,5355,2
3056,13072,-9788,-2039,3462,-338,2
-612,10488,-7168,-3032,5978,-4014,2
-2120,12372,-6156,-2990,2915,-6177,2
-2208,16380,-7420,-3015,-652,-6939,2
-632,17184,-8212,-1389,-2792,-4434,2
196,15140,-5956,-1186,-1868,-1609,2
444,13100,-4828,-928,-2346,84,2
356,12960,-5460,-742,-4323,-760,2
1468,13808,-6608,-645,-4609,-1295,2
2064,14096,-7444,-940,-2646,-1432,2
784,13528,-7336,-1674,87,-2178,2
-1048,12728,-7396,-2083,962,-2917,2
-2228,12864,-8272,-1501,-65,-2728,2
-1936,13752,-8900,-548,-2414,-1579,2
-388,14108,-7700,-244,-2702,-765,2
1212,15316,-6312,-431,-2413,407,2
1400,14708,-5928,-1251,-1401,1020,2
1220,13476,-6208,-1727,-645,1080,2
312,12576,-7040,-1664,42,1327,2
-1020,12272,-7072,-1192,-729,1382,2
-768,12284,-6676,-379,-2385,1634,2
312,11860,-6224,106,-3655,2740,2
1540,11664,-5848,249,-3485,4129,2
1880,12600,-6520,1,-2140,4256,2
1024,13252,-6360,-1059,-967,4189,2
740,11296,-5948,-1413,-605,5261,2
-284,11504,-7164,-661,-1711,5565,2
-1140,12040,-7624,-413,-3253,5840,2
-956,12208,-6684,24,-4022,5887,2
-368,11700,-6460,224,-4849,5492,2
-176,11768,-6980,423,-5321,5106,2
132,11172,-6872,512,-6068,4427,2
144,10880,-7568,233,-6235,5167,2
88,11288,-9108,-241,-6055,4994,2
-524,10992,-10040,-532,-5228,4807,2
-400,9436,-10448,-693,-4247,5541,2
2724,10264,-10972,469,-2074,5639,2
1980,15716,-12880,2834,-1085,4710,2
1612,19528,-10952,5785,-2329,3565,2
9908,22184,-9328,8749,944,1706,2
736,23156,-5984,7825,-3667,2094,2
5568,17996,-5036,6335,-6145,3505,2
4972,18176,-9548,2146,-3942,1979,2
5548,15468,-11208,-1682,-811,3099,2
5828,14184,-9368,-3425,4067,2329,2
3916,14044,-7028,-3668,4991,953,2
3180,14896,-5408,-4192,1620,522,2
3972,14152,-5208,-5260,505,678,2
3312,13464,-6084,-5812,-137,745,2
2092,13804,-7148,-6124,423,-1278,2
1248,13512,-7948,-5309,558,-2675,2
2636,11816,-9452,-2366,-198,-2201,2
2984,11220,-9124,2371,-3792,1191,2
4296,10948,-8000,7887,-7018,5570,2
4844,12076,-7784,10109,-7821,6958,2
5732,14992,-7780,9376,-6092,4922,2
4788,14976,-6492,6236,-2566,2313,2
5028,13792,-6012,4894,-1389,1875,2
4072,11440,-7904,4094,-1827,718,2
2680,11208,-9220,3293,-3389,-224,2
2440,10856,-9512,1759,-3334,-421,2
3284,10168,-7696,-2,-3942,-898,2
3560,9256,-7352,-2167,-2265,-2188,2
2832,7904,-7424,-3796,361,-3976,2
2900,7352,-8556,-5196,3275,-5728,2
1312,6716,-8952,-5153,2962,-7171,2
2276,7612,-7784,-4768,3219,-8079,2
1896,9492,-8344,-3809,3068,-7121,2
2672,14492,-10456,-3140,3638,-6255,2
1376,13724,-7736,-2980,1554,-3428,2
2468,12376,-6488,-1186,-2252,78,2
2320,13288,-5972,-302,-5785,2425,2
3120,13164,-6856,-668,-6008,984,2
3368,13244,-9384,-1973,-5323,-2317,2
3436,13700,-10736,-2911,-3159,-2491,2
2044,12296,-8952,-2823,-3123,-502,2
3116,13280,-9680,-2097,-8403,1276,2
-412,18244,-12312,1711,-6402,-1201,2
-128,18216,-10904,3971,-5321,2107,2
-704,14016,-9932,4647,-7907,5689,2
3884,20452,-12992,4540,-3758,3687,2
724,20224,-9956,527,2892,8,2
428,15396,-7508,-1777,9568,-487,2
-4292,14444,-4884,-3047,8287,-3477,2
-6244,15128,-4168,-3655,931,-4301,2
-3188,15140,-5040,-2159,-6303,-2670,2
-880,13944,-5736,-1374,-7238,-1143,2
276,12800,-6908,-560,-7471,812,2
1420,13500,-8128,-40,-7379,498,2
1780,15112,-9160,-956,-3342,-729,2
-316,13984,-7992,-2255,-187,-930,2
-1984,13132,-7780,-2471,-32,-1181,2
-1856,13120,-7732,-1999,-2011,-2233,2
592,13888,-7916,-1967,-1509,-2137,2
728,13468,-7412,-1337,-606,-1148,2
324,13068,-6588,-918,-296,-510,2
232,13240,-5156,-376,-949,944,2
-608,12936,-4812,-246,-2767,2256,2
-756,12852,-6100,-129,-4408,2497,2
140,12744,-8088,172,-4624,2699,2
24,12180,-8068,252,-3670,3383,2
384,11768,-8036,347,-2392,3820,2
88,11164,-7968,731,-2015,3522,2
1024,11604,-7368,1988,-292,5290,2
-816,12184,-5384,2423,-94,4913,2
-872,13360,-4844,2328,-988,3722,2
-1052,13024,-5256,1474,-1915,3717,2
-744,13992,-6564,640,-3402,3160,2
-552,14776,-7912,-860,-4182,2082,2
-84,11828,-8504,-1244,-4118,2471,2
-544,10856,-10060,-526,-4133,3278,2
-516,12028,-11104,-210,-2972,2011,2
-152,11340,-11356,-480,-731,1198,2
228,10040,-9872,-471,1989,1975,2
856,11584,-8952,347,2726,2859,2
60,16112,-10916,2230,2524,2066,2
420,17124,-8324,5132,1494,2603,2
-388,23700,-9480,7736,-1378,2127,2
4116,17296,-6216,8627,-5579,5655,2
4508,18416,-9244,7636,-5859,5968,2
3828,15964,-11784,6057,-3805,4683,2
2692,14844,-9988,5148,-3794,2962,2
3200,12016,-7940,4712,-4740,2752,2
4280,12988,-8812,3684,-3194,-215,2
2952,11720,-8744,2750,-1079,-860,2
2320,11472,-8748,889,730,-469,2
2176,10496,-8968,-940,1764,-1254,2
1884,9932,-8956,-1995,1678,-2016,2
1932,9476,-7580,-3000,1816,-3297,2
1764,9948,-7432,-4337,1695,-5275,2
2124,9692,-7456,-5160,2230,-5941,2
2024,10472,-7984,-4976,2188,-5325,2
1932,13264,-8600,-4798,2431,-4941,2
1528,13564,-8948,-3731,840,-2472,2
2060,13548,-9148,-2484,-1159,310,2
2556,12660,-8460,-518,-2950,1937,2
2616,11784,-6968,277,-3347,2236,2
3252,11852,-6668,733,-2590,3652,2
3120,11084,-7824,103,-1092,4451,2
2664,10736,-8308,-666,788,3074,2
2028,10084,-7932,-1993,3036,1002,2
1416,9284,-7740,-3121,3431,-2348,2
1276,10432,-6476,-3211,1553,-5196,2
1384,10856,-4864,-2555,-1643,-4081,2
2036,12120,-5248,-1095,-4537,-1725,2
1912,13172,-6540,-1126,-6219,-1156,2
1316,13860,-8948,-842,-9907,674,2
3804,12404,-9348,-1186,-12116,4149,2
3600,18204,-13468,1064,-9745,4215,2
-2352,20760,-11048,3298,-9889,3362,2
976,14644,-9636,3377,-4985,5917,2
1624,15784,-13816,4328,-5745,4699,2
-2300,24712,-14160,776,-1982,2907,2
4104,14288,-8868,-548,4922,3028,2
-1268,15804,-7228,-3263,7818,-2806,2
-4184,15952,-6312,-3779,1726,-6353,2
-3456,14144,-6576,-2884,-4407,-3816,2
-676,13104,-6700,-1384,-6284,-139,2
-400,12836,-6208,-532,-7525,562,2
1340,13704,-6684,-224,-7506,504,2
2204,14684,-7608,-1302,-4891,-676,2
1116,13788,-7440,-3162,-1502,-1070,2
-1300,12332,-7912,-3276,-1346,-1482,2
-1888,12472,-8080,-2242,-3104,-2322,2
484,13016,-7712,-1910,-2043,-3028,2
1172,11980,-7520,-687,-1463,-328,2
988,11696,-7104,645,-1585,2361,2
220,12616,-6312,1418,-1813,3189,2
328,13756,-5288,1321,-2210,2990,2
924,12428,-3908,541,-2174,4414,2
544,12172,-5000,-661,-2394,5747,2
-196,11088,-5204,-2161,-3212,7060,2
-968,9352,-6260,-1693,-4098,6966,2
-2104,9632,-9356,306,-7544,5229,2
-128,13212,-11288,1949,-7590,3878,2
1268,12760,-10528,1914,-3159,4582,2
40,12020,-9004,1181,-256,3354,2
-656,9396,-7216,1193,960,3309,2
-100,10156,-7384,572,1111,4796,2
1312,10776,-7704,1075,871,5626,2
992,15168,-8884,4589,-1346,3932,2
1024,20588,-8320,6985,-5279,2976,2
1624,27680,-10668,9006,-6483,369,2
5588,19680,-7744,6219,-6804,1404,2
3840,15656,-14328,1717,-3242,1229,2
3784,11836,-15272,-31,716,1645,2
2900,13236,-11644,-547,3182,-118,2
2216,12592,-9040,-244,2463,-1865,2
1288,11344,-7652,2676,799,-2289,2
1160,10384,-9388,5431,-539,-295,2
3016,11816,-10428,7632,-2816,2487,2
5436,14512,-8892,6672,-538,2542,2
4644,13116,-6396,4171,1992,743,2
2432,12700,-6504,2262,928,-1459,2
2144,11136,-7280,188,-1274,-1996,2
1924,10964,-7348,-1524,-3063,-880,2
1764,10152,-7212,-2714,-4348,277,2
2436,9992,-7880,-3555,-4180,569,2
2332,9732,-8684,-4983,-2823,-1472,2
1576,8696,-10160,-5840,-1463,-2529,2
1640,7316,-8708,-5847,-257,-2684,2
2324,9736,-9408,-5374,409,-4001,2
1496,11892,-10304,-4142,1112,-3073,2
1560,10768,-8328,-2048,730,-410,2
1900,12364,-7452,-1465,589,962,2
400,12380,-7720,-1194,-2659,2866,2
2540,12484,-7396,-1895,-4615,4663,2
2448,12672,-7204,-3998,-3537,2776,2
1472,12236,-7956,-4791,-3945,-283,2
780,11408,-8576,-4310,-5144,-1897,2
1936,11368,-8472,-3156,-5623,-1527,2
3024,11456,-7844,-1126,-7921,82,2
3576,14052,-7320,-303,-9491,2523,2
3356,14056,-7052,-1964,-10248,4148,2
3104,18212,-12672,-479,-8132,1692,2
-2400,17304,-10436,1334,-6187,2112,2
384,14264,-12216,3937,-6748,2048,2
960,19156,-17560,8291,-3981,22,2
1540,19556,-12632,5613,1365,7459,2
1184,17688,-8448,3074,6461,4727,2
-144,16040,-4624,-1641,12624,-2694,2
-4408,16224,-3584,-4656,9154,-6744,2
-4668,14648,-2912,-4290,-3178,-4984,2
-1344,12548,-6420,-1898,-7289,-2144,2
-1360,12396,-8256,-614,-10444,1584,2
752,12260,-9076,1085,-13532,2281,2
4244,13580,-9068,1250,-10301,3105,2
5688,14660,-8632,-932,-758,1074,2
892,13376,-8368,-3557,4746,-2273,2
-2156,11908,-8596,-4189,4140,-3662,2
-3104,10772,-8760,-2578,597,-3015,2
-1728,11848,-8076,-593,-2809,-1423,2
632,12932,-7232,279,-3853,-504,2
1756,13644,-6952,471,-3619,883,2
2348,14424,-6992,115,-2566,1415,2
1592,14284,-7956,-846,-674,1023,2
448,13140,-7688,-1429,864,165,2
-356,12416,-6792,-1304,1299,491,2
-1032,12404,-6176,-1752,149,1328,2
-424,12732,-6612,-1948,-531,1400,2
416,12456,-6680,-1940,-230,1784,2
324,11524,-6024,-1415,508,3554,2
-44,11516,-5636,-1175,21,4036,2
-436,11196,-5796,-573,-1041,4105,2
-552,11472,-6504,750,-3244,3890,2
-100,12532,-6296,1437,-4641,3739,2
928,13792,-6048,996,-4757,3796,2
368,13988,-6920,33,-5092,3615,2
860,14124,-7972,-969,-4504,2867,2
364,12404,-7844,-2199,-3341,2607,2
-80,10668,-8892,-2361,-2937,3534,2
-1060,10720,-9848,-2252,-2551,3803,2
-1064,10016,-10780,-2108,-1445,3385,2
-780,9124,-10668,-1889,30,3249,2
1040,9084,-10744,-845,1141,3692,2
2432,13068,-11712,2008,1655,3473,2
-72,18988,-12756,5454,369,1970,2
636,20828,-7900,6993,-1016,2437,2
4364,22360,-7536,9834,-482,3038,2
456,25340,-5500,8965,-2000,1995,2
4364,17772,-2744,7897,-4201,3708,2
4464,16252,-5720,6316,-5210,2567,2
2388,15484,-9328,5329,-7302,2353,2
2348,13420,-10480,6076,-9143,2200,2
3864,12748,-10168,6002,-9777,2456,2
4248,12392,-8492,5943,-9529,1477,2
5596,12812,-8540,5129,-5929,425,2
4916,13068,-9500,3262,-930,-1241,2
2572,12116,-10208,1654,2535,-2311,2
1256,12280,-10648,1509,2221,-1994,2
1484,11864,-10588,1741,1525,-363,2
1476,11376,-9980,1401,437,11,2
2224,10288,-8316,362,139,-293,2
2720,10300,-7388,-668,681,-875,2
2144,10532,-6732,-2460,1025,-2462,2
904,9752,-6712,-4186,295,-3563,2
1068,10416,-7912,-5712,143,-4160,2
1400,11524,-9240,-7374,1187,-5490,2
1216,10864,-9740,-7529,1860,-5332,2
1608,10212,-9384,-6127,1635,-3668,2
1976,11140,-9624,-4633,2196,-389,2
724,12496,-9184,-3043,-2425,-355,2
1660,13944,-8796,-2211,-2746,941,2
704,12212,-8076,-2060,-2904,1114,2
760,11884,-8856,-874,-4007,1055,2
2048,11720,-9368,-246,-3765,2165,2
2920,10372,-9632,534,-3432,4586,2
3316,9776,-9556,495,-2027,5250,2
3560,10180,-9784,-916,1059,3180,2
2824,10276,-9832,-2549,4404,-192,2
1372,9376,-7964,-3285,6133,-2501,2
496,8808,-5220,-3104,5782,-3521,2
-404,10420,-3972,-2873,3555,-3847,2
-24,12676,-4324,-3244,-295,-4730,2
1768,14056,-4332,-3299,-3960,-3679,2
2656,14972,-5188,-3493,-6958,-1280,2
2836,14220,-6908,-2693,-8418,523,2
2588,12216,-7568,-2041,-10400,1812,2
4404,11076,-7956,-663,-13056,4561,2
4108,17036,-12668,1535,-10131,4562,2
-1604,19612,-12652,3889,-8586,1550,2
-184,19312,-14144,6709,-9793,2511,2
1368,21988,-18948,13659,-5554,6391,2
1600,18904,-9892,5472,238,15385,2
376,13120,-7284,2120,4121,9417,2
1184,14756,-8924,1021,2196,1933,2
3944,15284,-11088,-1909,8413,-3972,2
-1752,17092,-8272,-4705,11165,-10858,2
-5352,18024,-7752,-4781,7636,-11242,2
-2552,15964,-6728,-2256,594,-4966,2
-2516,13656,-5396,-884,-2573,-224,2
-524,12636,-5404,-795,-6230,705,2
-68,14068,-6388,233,-8525,761,2
2484,15648,-4356,-71,-10090,599,2
6204,15008,-4676,-2111,-6293,1250,2
2996,13796,-6732,-3594,-1596,890,2
-688,12232,-7896,-5455,28,-1867,2
-3032,10308,-9168,-5365,-657,-2914,2
-3396,8044,-8672,-2666,-5046,-591,2
-104,8768,-7604,402,-9124,2687,2
3324,10836,-6316,1809,-9200,4074,2
4060,12464,-5508,2042,-5959,4558,2
2768,12696,-5708,2100,-4688,6098,2
2392,12596,-7008,2711,-2263,6023,2
-1544,14012,-7572,1289,-2388,4314,2
-1184,12392,-6092,52,-2014,5666,2
-2132,13232,-5548,-2428,-3390,5567,2
-2476,12408,-6624,-3898,-5843,4333,2
-1620,9380,-9060,-3373,-7996,3529,2
-76,9264,-11240,-1688,-7799,4247,2
604,8764,-11452,-352,-5478,5083,2
544,8144,-10636,294,-1849,6032,2
2000,8408,-9312,1396,213,6687,2
3328,13508,-9412,3661,1533,6993,2
-420,23076,-13216,4890,664,2572,2
608,24264,-8700,4068,17,-708,2
692,22724,-6808,2998,3835,-1523,2
1508,17624,-5696,1333,-73,-771,2
4400,16784,-8508,-214,-2754,-738,2
3988,17312,-12876,-595,-2104,742,2
3888,14508,-10468,263,-1995,2649,2
4588,13784,-6768,1803,-1429,3543,2
3148,14380,-6892,2755,-2453,3553,2
2608,16112,-6584,2052,-2840,1837,2
3580,14492,-5620,-9,-1771,695,2
2760,11944,-6168,-1471,-395,-13,2
2280,11248,-9152,-726,-673,-281,2
1540,11136,-10636,1600,-1272,-487,2
1872,11676,-9956,5040,-3589,330,2
2824,12668,-8484,7142,-5125,760,2
4028,13052,-8008,7618,-5309,772,2
4880,13532,-8088,7334,-3017,365,2
3988,14192,-8236,6601,-2130,412,2
3504,14312,-8336,5827,-2137,1263,2
3076,12544,-9036,5444,-2802,2893,2
2736,11736,-9992,5055,-3339,3247,2
2056,10564,-9768,4433,-4115,3342,2
2508,10416,-9412,3026,-3674,3839,2
2824,10320,-9304,784,-1724,3191,2
2756,10472,-9124,-1095,105,2523,2
2936,10296,-8688,-2763,1258,1088,2
1980,9360,-8672,-4571,2674,-1,2
960,7772,-8536,-5887,3503,-2336,2
312,6620,-8548,-7075,3216,-4536,2
1636,7268,-8552,-7878,3465,-5493,2
2920,7108,-8380,-7281,3718,-6698,2
2884,8564,-8368,-5324,3378,-5742,2
2724,11932,-8492,-4426,1187,-5304,2
2532,12588,-8036,-3380,870,-3719,2
3088,12896,-7644,-2801,-56,-1480,2
3788,12452,-7912,-2137,-323,354,2
3304,12040,-7160,-1424,-2454,2884,2
3664,12252,-6428,-1185,-3990,4444,2
3640,12824,-6260,-2719,-4105,1909,2
3868,12120,-7992,-4915,-3933,-1426,2
3404,12128,-8468,-5630,-3093,-3162,2
2212,10900,-7664,-3704,-3757,-2973,2
1956,11068,-6984,-1966,-6910,-1544,2
2736,11984,-5844,-1859,-8985,239,2
4092,11864,-6620,-2506,-11783,982,2
3588,16372,-13368,-1160,-10536,-1071,2
-2996,20368,-15844,3971,-7773,-5778,2
-2616,22440,-16748,6591,-14675,695,2
4736,23820,-19852,12603,-7232,5700,2
2632,19392,-6948,5450,1800,11646,2
-176,15020,-3184,2351,4276,8019,2
3016,15740,-7828,-932,3967,968,2
-2288,15524,-7200,-4627,11991,-6710,2
-7392,16144,-4932,-6198,9288,-9771,2
-6576,15280,-4124,-4542,4221,-8311,2
-2160,16556,-4128,-2993,-2543,-5064,2
-2760,14772,-2612,-1937,-6308,-1156,2
-2828,13116,-3688,-1235,-11821,586,2
220,12940,-7416,62,-16086,3010,2
2096,14144,-9936,-30,-15360,4096,2
4760,13756,-10152,-949,-8926,3750,2
2812,13328,-10076,-2215,684,114,2
-2192,11904,-9456,-2791,3902,-3506,2
-4176,11020,-9088,-2191,2170,-4141,2
-3556,10572,-7776,-630,-2102,-2062,2
-4,12504,-7248,712,-4330,-130,2
1456,14596,-6620,264,-3309,723,2
968,14460,-6384,-696,-1477,1013,2
440,14432,-7128,-906,-1835,108,2
296,14112,-7532,-1088,-1438,-217,2
-108,13092,-7588,-1536,-329,508,2
-1016,12220,-6676,-1183,290,1054,2
-1104,11892,-5712,-540,-293,2065,2
-980,12308,-5384,-6,-1029,3451,2
-880,12592,-5292,209,-1904,4512,2
-292,12284,-4680,282,-2451,5397,2
-188,13420,-5068,176,-2205,5792,2
-1220,12336,-5308,-157,-3093,5369,2
-1044,12316,-5676,128,-3927,5110,2
-852,12724,-6384,-163,-4967,3265,2
-132,12888,-7240,-411,-4981,2670,2
-196,12748,-8388,-231,-4697,2874,2
-84,12528,-9404,-67,-4395,3011,2
-4,12208,-9824,423,-4419,3256,2
480,11604,-9060,763,-3427,4060,2
344,11388,-8764,91,-2014,4354,2
-396,10632,-8448,-525,-196,3442,2
-448,9668,-8036,-1135,1358,3184,2
148,9332,-8408,-1121,2342,3254,2
572,11952,-9888,1039,1670,3494,2
-1240,16960,-13160,4541,42,2185,2
3216,22600,-15252,9082,-2550,1812,2
700,20992,-6168,10599,967,4822,2
2420,15600,-2048,10788,-5050,3827,2
3428,19776,-8512,6262,-6530,2647,2
2380,16752,-13264,3986,-6452,1524,2
3196,14924,-11656,3581,-5678,-76,2
2644,12772,-9816,3864,-4122,-310,2
3500,12640,-8612,3400,-1162,-1259,2
2220,11948,-7536,2522,-1093,-289,2
1976,12180,-8104,1614,-547,426,2
1372,11556,-9180,371,646,-653,2
1124,10744,-9304,-482,-154,-952,2
2112,10684,-8952,-1825,-108,-1182,2
1800,10148,-8420,-3089,426,-2012,2
628,8552,-7656,-4163,780,-2483,2
808,8824,-7640,-4600,717,-2138,2
1164,11628,-8480,-5000,-4,-2273,2
1856,13544,-10296,-5237,-573,-1102,2
1128,11728,-10692,-4050,-298,-680,2
2056,10280,-8944,-3116,-265,1078,2
2136,10900,-8176,-2408,-1222,2044,2
1924,11092,-8596,-1801,-2186,2461,2
2908,9152,-7428,-945,-308,4138,2
2168,8632,-6360,-1340,1578,3561,2
1224,9488,-6888,-2290,1716,-272,2
676,10168,-6528,-3558,-309,-2990,2
2628,10792,-4608,-4778,-1277,-2185,2
2236,13776,-5256,-4927,-3548,-3318,2
1460,13768,-5604,-3336,-6583,-3045,2
2204,12668,-6172,-2649,-10448,798,2
5240,17632,-13996,139,-9488,-919,2
-6016,22272,-13960,2886,-9447,-764,2
-948,21792,-18040,7928,-16692,4369,2
2484,24936,-16932,10761,-2464,8752,2
2848,16124,-6200,3764,6325,10990,2
104,15392,-8088,862,4341,3762,2
-1856,15020,-6800,-2514,8555,-4610,2
-4644,15844,-3168,-5219,6352,-9984,2
-3140,14332,-2940,-4647,231,-8531,2
-1572,15012,-4472,-3555,-3626,-2401,2
-2556,13224,-5996,-2205,-10901,881,2
1064,13236,-9464,-131,-14090,3139,2
5044,14408,-8796,-1221,-6753,2729,2
2520,13544,-8692,-3032,3293,-366,2
-1572,11472,-8588,-2976,4771,-2844,2
-3960,10556,-8108,-1420,575,-1975,2
-1768,12420,-6704,498,-4146,-217,2
868,14496,-5984,673,-3852,782,2
3056,12896,-4552,491,-944,3570,2
2640,12356,-4608,543,-477,4437,2
1556,12120,-4844,283,47,3635,2
40,11892,-5024,302,-1354,5480,2
-632,12424,-4900,-126,-3580,7995,2
-876,13936,-6036,-2370,-5128,7115,2
-704,11968,-6408,-3427,-6300,5462,2
-296,9700,-9308,-2755,-5443,3396,2
-1020,8376,-10936,-1745,-4354,2052,2
-124,6916,-10288,424,-2316,4135,2
1864,9668,-9004,1637,-827,6777,2
2860,17848,-12044,3605,157,5691,2
936,23148,-10532,6072,1115,516,2
788,23676,-5088,6413,2504,2524,2
1236,22316,-4676,5458,-8980,2159,2
3384,17632,-9660,3870,-9929,2830,2
2644,14384,-11080,4012,-7227,3992,2
2208,13404,-8908,6411,-7454,3956,2
3384,12720,-6524,7420,-9723,1809,2
3636,12620,-6628,6242,-9292,1599,2
4040,12068,-9400,3301,-5174,-249,2
2620,12800,-12464,2125,-1587,-316,2
2396,12480,-12796,3045,138,266,2
3068,12352,-10636,3478,786,1760,2
3400,12044,-8008,2506,1634,1398,2
2280,10728,-6808,898,484,1152,2
1592,10324,-6952,-295,-1645,1293,2
1340,9696,-7916,-1620,-1972,866,2
1120,9744,-8380,-3065,-1874,-191,2
1464,9428,-9372,-4738,-572,-1963,2
1948,8868,-9324,-6047,411,-2490,2
3476,10696,-9196,-7179,2512,-1455,2
3540,8208,-7740,-7223,4924,-1313,2
2972,7368,-6264,-4440,5073,296,2
3104,10328,-4816,-4746,4355,-703,2
2636,10416,-5816,-5622,3790,-1826,2
3184,11172,-8732,-4410,2290,-4948,2
2564,11880,-8592,-2663,-1875,-3167,2
3848,10832,-6820,-1001,-5474,1337,2
4004,10940,-6480,-1236,-6119,659,2
4792,9640,-6188,-1596,-7181,-1206,2
3156,17624,-11880,104,-2964,-4773,2
-2728,22828,-17456,5433,-2311,-13591,2
-5160,32767,-23972,13898,-555,-1938,2
5524,15408,-8964,4938,7372,18656,2
-2456,15316,-7636,3604,-2490,7099,2
3524,24464,-6920,-6879,13343,-10355,2
-8020,13064,-1220,-6483,8170,-13223,2
-6324,14912,-2792,-6394,1948,-9235,2
-3528,13988,-5152,-4345,-4882,-7069,2
-5824,11072,-6916,-4052,-13459,-2529,2
-948,9604,-12032,2019,-23742,4795,2
7804,15540,-8440,1297,-13748,5091,2
6004,14872,-7308,-1450,-207,2737,2
-464,12692,-9128,-3237,4971,-2805,2
-3976,11232,-9568,-4005,5581,-4728,2
-5776,8880,-7724,-2110,-638,-3778,2
-2356,11324,-8660,402,-7226,-1965,2
3748,15100,-8400,2222,-4567,959,2
2988,15244,-6228,1367,-389,2177,2
268,14852,-5980,-778,1727,1352,2
-2432,13672,-4848,-3193,2608,948,2
-2468,11180,-3044,-3497,519,2911,2
-1584,10004,-2640,-3523,-2280,3927,2
-1672,10148,-5576,-2270,-5470,4264,2
-1212,11032,-7492,618,-8728,4322,2
276,10004,-7648,2224,-7185,4811,2
-428,11692,-9148,1889,-4959,4029,2
-832,10220,-8096,550,-3025,2666,2
112,9032,-7080,-25,-21,4858,2
-116,7996,-6380,-416,632,6240,2
2740,13280,-9264,1659,712,6830,2
-3404,25992,-15784,4959,-757,2157,2
2880,22572,-9568,8219,3011,4355,2
-240,19760,-4440,7101,778,3486,2
1292,21888,-5848,4977,-6020,2710,2
2792,18096,-9048,3491,-5828,4316,2
2300,16628,-8816,3703,-5174,3225,2
772,15716,-8016,4334,-7119,1599,2
2292,13520,-7836,5201,-9220,1761,2
3536,12816,-7936,4552,-8865,1374,2
3704,14004,-9472,2848,-4328,874,2
2612,13060,-10240,1673,-195,-34,2
1756,12212,-9912,1746,132,-8,2
3116,11292,-9052,1910,1413,1592,2
2156,10776,-8472,344,1484,1768,2
2008,10272,-7524,-1344,1628,1546,2
1196,10188,-6568,-2372,1385,616,2
244,9580,-5780,-4352,179,-1322,2
1468,9364,-6360,-5341,-246,-1722,2
2120,10192,-6936,-5824,-726,-2551,2
3020,10712,-7128,-6154,-734,-1536,2
2456,9892,-6468,-5967,-1195,-355,2
3684,10380,-6976,-5679,124,-836,2
2704,8284,-6696,-4819,-133,-1227,2
3380,7048,-7280,-2852,-411,-1396,2
3188,7680,-6812,-1496,221,-1464,2
2604,7884,-5980,-795,-399,-338,2
2096,7412,-5404,-285,-2953,-1006,2
4276,8024,-7084,2647,-4874,-1660,2
-144,22260,-11668,3317,-4358,-8124,2
-5000,32767,-18128,11156,-2282,-9125,2
628,19324,-13788,5602,-98,2054,2
-5640,14688,-7336,4853,-8476,14308,2
8588,26520,-13312,-2257,3517,4691,2
-2824,19860,-5480,-6947,11850,-6232,2
-9004,17308,-3924,-6623,7170,-9196,2
-4564,16396,-6048,-7342,2293,-9968,2
-5248,14300,-8416,-6022,-6146,-7422,2
-4576,12588,-12692,-843,-21016,-2270,2
-904,15680,-1508,-76,-1036,-335,2
-924,15636,-1436,30,-1164,-482,2
-784,15960,-1336,129,-1083,-1484,2
-1100,16044,-1512,2,-1039,-569,2
-1460,15776,-1056,533,-1232,-608,2
-1032,16108,-536,849,-843,-710,2
-976,16312,-368,742,351,-849,2
-1224,15952,-448,663,1488,-929,2
-1560,16432,-588,586,1698,-939,2
-1548,16656,-648,239,1558,-933,2
-1860,16904,-888,-155,1718,-1261,2
-1752,16964,-796,-533,2125,-2168,2
-2700,17260,-676,-1682,1938,-2650,2
-3816,17300,-996,-3206,1039,-3478,2
-3308,16004,-1088,-4800,38,-5072,2
-4204,15552,-1412,-5193,108,-5222,2
-4312,15116,-1876,-5018,293,-5287,2
-2324,14968,-2296,-3330,476,-5176,2
-756,15276,-1244,-1688,2188,-2964,2
-1076,15452,656,-1630,4094,295,2
-1700,15252,1728,-2472,5538,1466,2
-1984,15116,2144,-3234,7502,1096,2
-2580,15896,1784,-3477,9081,-418,2
-3664,16528,156,-3465,9685,-2267,2
-4700,15884,-1228,-3442,8876,-2613,2
-5604,14972,-2440,-3395,6994,-1889,2
-5408,13856,-2416,-2562,5367,-878,2
-4768,14016,-1576,-1705,4280,-350,2
-4280,14616,-20,-1202,3944,-184,2
-4580,14908,748,-875,4274,-176,2
-4884,14776,640,-406,4898,-445,2
-5196,13948,432,213,5033,-648,2
-5104,13672,-136,708,3873,-360,2
-5572,15300,-1236,1321,2052,-194,2
-4832,21468,-2904,2390,819,649,2
-1300,23776,-2404,1079,774,1270,2
-712,17156,500,-142,1670,420,2
-616,13344,48,508,3165,-693,2
-1516,13580,-1448,777,2820,501,2
344,14444,-1644,1882,3897,2364,2
180,16032,-1624,2032,3599,4575,2
1336,16584,-1168,1842,3378,4399,2
1100,15316,-1284,1885,4404,4024,2
504,15024,-2036,1882,3450,2467,2
-248,15048,-2520,2447,2736,3333,2
-156,15752,-2620,2531,2458,3633,2
-452,16352,-1760,2434,2493,4038,2
-948,17432,168,1763,376,4331,2
760,17992,2108,854,1803,4468,2
648,17392,2100,-166,4755,3009,2
580,15704,812,-359,5946,1142,2
576,15260,-200,-206,5765,921,2
220,14536,-1388,-14,3886,2167,2
796,15144,-2904,425,2325,4297,2
988,15216,-3296,1121,2340,4848,2
-156,15360,-3040,2229,4233,3946,2
-1368,15608,-1824,2597,3929,3163,2
-1332,15128,-1616,2698,1437,2535,2
464,15568,-428,2823,-202,2200,2
1552,16520,920,2501,-169,2275,2
1952,17456,1704,1834,739,2673,2
1124,17788,1944,908,1152,2407,2
-856,17404,1084,-178,-400,525,2
960,20096,24,-811,-1186,-3268,2
2624,24492,-352,-2213,342,-4779,2
1452,25596,-1568,-3308,-652,-6902,2
-112,18888,-3688,-5926,507,-11806,2
-556,14808,-4444,-6711,2036,-18033,2
-1112,14260,-5276,-6752,494,-20347,2
-1676,16560,-6200,-6270,-4146,-16769,2
-2688,19532,-9296,-6066,-10702,-12236,2
-1884,16664,-9412,-4776,-15869,-7564,2
96,15024,-5188,-2818,-15659,-4979,2
292,12772,-1876,-2037,-12690,-4575,2
12,11880,1000,-1025,-8496,-3961,2
-928,13564,2760,-1776,-5402,-2857,2
-1304,14700,3404,-2432,-4306,1051,2
-376,13348,1980,-2039,-1351,2138,2
-168,11380,1052,-458,2263,3209,2
-316,10168,868,1359,6330,2119,2
-1900,11116,240,3236,10110,2364,2
-4596,15348,-196,4093,11213,2585,2
-8724,19924,236,2347,8051,4075,2
-11240,20488,1056,-1613,1019,4082,2
-7248,16476,1984,-3967,-5273,2040,2
-4136,13872,2296,-4660,-5434,359,2
-2548,16944,-1652,-1511,-3460,-576,2
-180,24844,-5080,1730,688,-29,2
2208,17160,-3744,-669,4681,-2114,2
592,13500,-4424,-173,6124,-2355,2
344,11956,-4776,770,3080,813,2
536,10912,-3332,2939,3022,1864,2
-864,12696,-1140,4380,1190,1083,2
-692,16220,-1484,4605,1464,399,2
-3248,18580,-388,2796,-1518,941,2
-1752,18908,772,1027,-3798,3161,2
-76,17296,1136,-558,-2886,4185,2
-1108,16420,636,-1541,-2438,3208,2
-1604,14120,-744,-1164,-2237,1808,2
-3488,13220,-1636,-396,-4782,677,2
-2144,13308,-1040,508,-5685,456,2
-1100,14844,-544,916,-4963,236,2
-1044,15720,224,423,-4639,83,2
-1824,14928,608,-469,-5407,-573,2
-2936,13644,276,-1000,-6810,-1689,2
-3260,13088,-932,-917,-7190,-2071,2
-2256,14220,-1664,-381,-7424,-1142,2
-1084,15084,-1248,267,-7735,-596,2
-516,14660,808,1673,-7103,-1354,2
-176,14820,3584,2314,-6901,-1700,2
-712,15476,4316,2362,-5666,-2031,2
-1404,15652,4156,2115,-6105,-1708,2
-1228,15844,4836,1654,-6428,-2260,2
216,16656,4052,1055,-3251,-3017,2
-276,18364,2236,-124,946,-4402,2
-2232,19244,244,-1069,3943,-3737,2
-2988,18708,-1860,-1146,4841,-2242,2
-5856,21540,-3380,-298,3730,-2915,2
-4740,23344,-3372,-1180,1930,-2683,2
-6764,17528,-3260,-2075,-110,-3905,2
-8008,16640,-4344,-2334,-1556,-3650,2
-8348,17880,-3188,-2408,-4778,-3121,2
-7348,18528,-1824,-3944,-7507,-1978,2
-5512,18456,-692,-6013,-8832,-1384,2
-5680,19072,144,-8015,-10768,-1005,2
-5468,18736,-196,-8363,-9858,-1683,2
-2224,16524,-72,-7584,-5928,-1658,2
-3228,14508,-244,-7297,-2886,-2229,2
-4308,12112,696,-5540,-432,-5109,2
-6572,12420,2108,-2953,576,-6058,2
-6156,12940,2488,-1104,-1204,-4265,2
-5584,12648,2224,624,-1467,-2299,2
-4252,11812,1664,1073,-1206,-136,2
-4344,10392,2160,1459,-1215,897,2
-4968,9528,3008,2333,-2137,2479,2
-4940,9548,3728,3853,-3618,4783,2
-3644,10680,3732,6035,-4763,6808,2
-3128,12572,3736,6553,-3664,6651,2
-3052,14648,3332,5755,184,4989,2
-3892,16268,2684,4656,3651,3817,2
-4344,15376,2592,3998,4152,2534,2
-3424,13604,2168,3493,3223,3013,2
-3256,12276,1636,2916,4107,3775,2
-4036,11184,1256,2855,4066,3354,2
-2480,10332,564,2731,5780,2283,2
-2760,9712,96,2817,8226,120,2
-2516,11676,-924,4345,9732,-621,2
-4932,14264,-2816,4098,8351,69,2
-4256,15836,-2700,2911,4668,4191,2
-4904,17064,-1864,1621,146,7744,2
-5996,16284,-2036,406,-5175,8534,2
-7072,14476,-2424,-585,-8905,6348,2
-6896,14292,-2212,-189,-10222,4241,2
-7576,13788,-1648,303,-11670,5166,2
-7452,18292,-1660,1888,-17281,4306,2
-3776,31504,-3236,558,-23972,3582,2
1444,32767,980,-3439,-21005,1421,2
268,25168,6040,-7215,-13675,-1957,2
4504,22000,2020,-5088,-4955,-1304,2
652,16416,-1660,-305,-2633,-5738,2
1040,16256,-1948,1998,2261,-4227,2
2104,15788,-1536,2405,5835,-1508,2
1696,15820,-2136,3381,9332,-976,2
-860,17232,-3584,2937,10169,-870,2
-5856,18096,-4572,2542,5101,1784,2
-4184,17240,-2000,1196,-3707,5821,2
-1844,15708,72,524,-8816,7009,2
-428,16260,1176,-695,-7603,7321,2
-636,16148,84,-909,-3805,5873,2
-416,16000,-1204,23,1759,3591,2
-264,15896,-1000,1114,3706,1369,2
-224,15912,752,2193,3745,291,2
-928,16272,1696,2375,2701,1616,2
-952,16436,1700,1647,2382,3107,2
-544,15608,984,564,2453,2749,2
-436,15252,-700,107,2318,2358,2
-1408,15472,-1820,150,2034,2105,2
-2320,15148,-2212,248,388,1373,2
-2664,14228,-2040,575,-1601,279,2
-2680,14544,-1648,1011,-3040,-942,2
-1948,14784,-1384,1060,-4598,-1306,2
-1956,13908,-664,842,-6888,-1893,2
-1736,13040,-128,675,-8268,-2378,2
-1720,12560,-452,526,-9180,-3104,2
-412,11888,256,565,-8803,-3113,2
-1052,11876,1516,22,-8894,-3072,2
-648,13196,1744,61,-8479,-2645,2
-508,17756,1832,113,-7145,-2633,2
-24,19800,1700,119,-5223,-3207,2
-520,17024,2008,232,-3733,-3698,2
-1244,13408,1180,861,-2691,-4183,2
-2968,10668,1988,1716,-4091,-2971,2
-2924,11428,3040,2168,-5564,-2802,2
-2356,14756,3700,2683,-6486,-2245,2
-1476,17448,4072,2104,-4684,-2905,2
-748,20664,3168,174,-234,-5758,2
-3072,24992,368,-2036,3648,-7926,2
-4536,24136,-2004,-5044,3205,-8659,2
-9244,24764,-5040,-7049,684,-9873,2
-8812,25648,-5480,-8593,-4659,-6350,2
-7592,16356,-5484,-10253,-7337,-4786,2
-6836,14560,-3296,-7344,-7924,-3396,2
-6284,16492,216,-4879,-7011,-1918,2
-4180,17700,2248,-3985,-4599,-1880,2
-6140,16456,1480,-3228,-2227,-3087,2
-5620,14652,1016,-3499,-121,-2443,2
-5412,11620,712,-2663,1707,-2763,2
-5700,11464,1036,-1505,1905,-3448,2
-5936,11556,2316,1107,1312,-1526,2
-6052,12408,2212,3273,1015,827,2
-5224,13820,1556,3294,527,2488,2
-5324,13564,1200,2516,175,4072,2
-5004,13448,1656,2075,535,5697,2
-5588,13212,2572,2813,933,6647,2
-5412,13844,2400,3295,1807,4698,2
-4736,14340,1428,3079,4163,3233,2
-5580,14688,1064,2836,3586,3378,2
-6328,16088,736,2690,1626,4729,2
-5612,16356,956,2041,381,4009,2
-5352,15364,2176,780,-161,2018,2
-5776,14728,2032,-153,-1190,717,2
-4664,13336,1088,-387,-1269,52,2
-3236,12264,1256,142,380,-815,2
-3044,11688,544,1080,1796,-977,2
-3252,12764,-80,2172,1775,-334,2
-2936,12332,924,3115,1152,2224,2
-3360,12552,1380,3072,1598,2757,2
-3932,13772,56,2133,2114,1838,2
-6088,14728,-1124,952,-306,2157,2
-5660,15904,-2252,75,-4145,3721,2
-5092,16172,-2820,250,-5785,4171,2
-6924,14608,-3624,666,-10347,4871,2
-5896,13164,-2048,809,-15337,5002,2
-4396,12764,244,2084,-14892,3783,2
-4448,18608,120,4041,-14068,221,2
-1632,28468,-304,1082,-14422,-536,2
-688,27720,5248,-1522,-12718,1125,2
-2940,27396,1656,-4065,-10061,-2145,2
2624,14432,-1196,-1814,1840,-7999,2
1960,12896,-2040,458,8391,-5589,2
-580,16192,-3412,1609,8241,567,2
-3024,17456,-4284,1441,4269,3731,2
-5176,17600,-3548,1006,-1635,5435,2
-4132,16412,-2224,368,-6760,6304,2
-2960,15288,-1244,102,-7813,6344,2
-1384,13932,-1348,1922,-3140,3558,2
-1368,14308,-768,3668,-781,1542,2
-1996,16440,1300,3982,-717,1229,2
-1988,17568,3624,2438,-1640,2901,2
-2100,16012,2760,623,-1491,2669,2
-2968,14580,964,-414,-2438,1934,2
-2432,14804,-764,-455,-1079,577,2
-2660,15244,-1016,-675,-1414,-1246,2
-2132,12428,-664,-937,-1516,-3769,2
-2964,11336,-1368,323,-2190,-4896,2
-2368,14420,-1036,1596,-4826,-3544,2
-2216,12508,768,246,-7590,-2352,2
-2316,13280,-612,1533,-8962,-2211,2
-2200,17000,52,2480,-8921,-2116,2
-40,17604,2568,1190,-5935,-1797,2
-1608,15744,3952,1350,-3662,-3518,2
-1632,14832,4412,1519,-3027,-4984,2
-1980,13940,2932,785,-1967,-5076,2
-2660,16920,412,38,44,-4573,2
-4456,21564,-1960,-696,872,-2648,2
-5956,20176,-2908,-3104,-929,-1273,2
-10224,22320,-5400,-2756,-3787,-2575,2
-7892,20644,-1912,-4606,-4349,-1941,2
-6680,17304,-1300,-4985,-5404,-2134,2
-6124,17276,1068,-4734,-5234,-1666,2
-5252,17760,1316,-6488,-3512,-1682,2
-5724,16448,1676,-8374,-3085,-2103,2
-4404,14848,1384,-7926,-95,-1382,2
-4124,12436,856,-6061,3584,-3748,2
-5684,12684,536,-4130,3911,-4964,2
-6800,13920,980,-2378,1402,-1202,2
-5240,13552,708,-1113,892,876,2
-5364,11744,1132,-111,782,1315,2
-5332,10452,1148,1265,-182,4213,2
-4004,9604,1204,3190,-283,6415,2
-5376,9404,608,5655,-2048,9325,2
-4764,10564,768,8981,-3089,9781,2
-2212,13436,1988,8575,-2523,9144,2
-3816,14644,2152,7783,464,9063,2
-3832,20172,1036,6154,6856,3813,2
-6804,18996,1668,1671,700,2897,2
-7732,17560,2504,-2512,-7555,1887,2
-4980,15440,1904,-4508,-9731,-1797,2
-2568,11368,1184,-2260,-6683,-4977,2
1096,10560,648,2588,2233,-5022,2
548,13996,724,5235,8364,-1369,2
-1136,14944,668,4723,8779,3872,2
-6844,14596,-316,2875,1754,5849,2
-7716,16200,-2040,1246,-5470,4263,2
-5144,15792,-1756,316,-7735,3503,2
-3976,14100,-1376,666,-6990,3934,2
-7564,14588,-2448,1251,-10362,5616,2
-4512,22236,-3344,1494,-15524,1934,2
1508,26812,-344,-542,-14066,-1095,2
3916,23396,2616,-2562,-3084,-450,2
-1812,26604,-1528,-3071,-6194,-3266,2
-272,15620,-1544,-1823,-3206,-2639,2
2224,15896,-2904,-54,23,-218,2
3520,15672,-3204,1435,6508,203,2
72,16332,-3580,3029,8816,333,2
-4200,14808,-1452,3203,3069,1826,2
-4440,13980,-756,2019,-6491,5610,2
-2880,14116,-40,347,-12360,7426,2
-1592,15252,-1144,840,-10033,5212,2
944,16544,332,3178,-3653,-195,2
-148,17788,3384,3545,-241,-311,2
-2236,17612,2656,1293,-1396,532,2
-2424,16572,84,85,-1946,233,2
-1120,15512,-1128,212,219,-374,2
-1588,14724,-1316,993,1405,-880,2
-1712,14844,-1152,1030,639,-1568,2
-2224,14292,-456,1251,-1443,-1494,2
-1820,14704,-252,873,-3188,-980,2
-1524,13404,-100,637,-3310,-2147,2
-2704,13204,-556,470,-4150,-3013,2
-2656,13464,-1232,1150,-5384,-2932,2
-1856,14080,-976,1519,-5259,-3148,2
-1824,14804,120,1363,-5274,-2205,2
-1828,15976,1264,1371,-6420,-1678,2
-1656,15564,2660,839,-4715,-2620,2
-2440,13744,2808,1230,-2818,-2647,2
-1352,13996,3104,1392,-3118,-3028,2
-804,14588,2732,1079,-1675,-4016,2
-1344,19448,176,-178,1650,-3844,2
-3488,24172,-2032,-2943,1945,-2718,2
-6124,28660,-7048,-6133,2394,-3108,2
-7604,22244,-6524,-9336,-1069,-3314,2
-7196,14112,-7984,-9091,-2639,-5353,2
-8352,13596,-5624,-5373,-8879,-4118,2
-7400,16732,-2716,-4072,-11697,-703,2
-5816,19444,316,-5713,-9864,1936,2
-4072,18684,2080,-7666,-4183,-156,2
-4632,13712,2080,-6269,-3506,-1317,2
-4264,12860,1976,-3802,456,-3430,2
-3728,13248,2580,-1888,3181,-3511,2
-4736,13408,2604,-525,2782,-2730,2
-4900,13016,2260,-285,2742,-119,2
-4788,11196,1752,371,2191,1827,2
-5220,11180,1632,1084,589,4618,2
-4400,11152,2512,2154,-564,6592,2
-3996,11952,2608,3796,-1231,7166,2
-4176,14628,3240,4807,789,5441,2
-5560,17144,2796,4195,2805,3444,2
-4564,15892,676,3435,1770,2632,2
-4752,17672,-276,3367,330,3853,2
-5160,16544,824,1541,-2060,3196,2
-4376,14300,2024,943,-3478,2007,2
-4596,14332,1536,1173,-4191,736,2
-3064,14096,1296,2076,-2141,-784,2
-1676,13536,848,3285,593,-1397,2
-1088,13176,752,4043,3415,-1211,2
-2368,13124,788,3790,4220,1458,2
-3784,13248,512,2880,2473,2460,2
-4292,12716,408,2155,1978,2012,2
-4080,13228,-472,1633,1060,2738,2
-4528,14788,-1268,1545,-1461,3473,2
-6096,15360,-2036,1721,-5178,4355,2
-5776,15052,-484,996,-8415,5656,2
-6664,16356,-400,711,-11531,4989,2
-1524,26548,-3520,-1363,-13424,18,2
2340,25164,1972,-3203,-10259,2244,2
-3644,31716,-228,-5794,-7369,1406,2
80,20904,-3944,-5235,-4358,-5431,2
2060,11224,-2472,-2154,1134,-8377,2
2724,12652,-3556,2008,5889,-6227,2
2192,15720,-2264,1816,5695,-1389,2
1936,16892,-2940,2343,6234,1815,2
-2420,16416,-2944,2405,4650,5210,2
-3340,16884,-2656,2347,-908,5207,2
-2456,16104,-968,1574,-4868,6223,2
-2088,15760,92,894,-7458,6642,2
-2304,15040,716,280,-7484,5823,2
-1772,13976,-792,940,-5150,3142,2
-8,14968,-636,1687,-3077,847,2
100,15328,480,1962,-2416,327,2
-592,16028,1308,1867,-1782,1351,2
-2528,16596,940,1056,-3528,2299,2
-2988,15616,524,-116,-5707,1768,2
-2120,14428,-484,-713,-5775,530,2
-1148,13636,-1808,-399,-4064,-1357,2
-1296,13836,-2600,123,-3046,-2445,2
-2328,13648,-1732,940,-5729,-2331,2
-1560,12360,-792,1302,-7353,-2075,2
-996,13364,-560,2286,-8319,-2119,2
-588,14632,320,2369,-9308,-1205,2
-252,16304,2048,1614,-10467,641,2
-112,16380,3256,285,-10073,1275,2
-836,16092,2652,88,-7270,-201,2
-1308,15440,2196,246,-5581,-1407,2
-1780,14648,1924,956,-5184,-1914,2
-1088,14568,2440,1785,-4460,-2035,2
-1272,14544,3596,2350,-4702,-2886,2
-460,13484,3896,2602,-4670,-3029,2
-364,13648,3572,2890,-3752,-2742,2
-1288,17320,2516,1962,-1104,-4015,2
-2504,24192,1120,378,2080,-4719,2
-3536,26844,-644,-3363,4142,-4964,2
-8144,32088,-5056,-6624,3118,-5511,2
-6648,24548,-4912,-9872,-1603,-2640,2
-5668,16524,-6592,-10066,-2194,-2965,2
-5836,12976,-4952,-6866,-3850,-4085,2
-5440,12712,-2868,-4341,-7120,-4225,2
-4276,16224,-2120,-3636,-7619,-1452,2
-4640,18556,-428,-5630,-6360,799,2
-5960,16908,-1256,-6897,-5810,1256,2
-4972,15012,-720,-7290,-5298,1244,2
-8196,14568,2088,-7801,-4159,-2287,2
-5036,14856,1784,-7065,-3621,-784,2
-3496,13956,2528,-5057,-2138,-2762,2
-2748,13104,2428,-3411,786,-4059,2
-4324,10316,3696,-1091,597,-5093,2
-5168,8480,3060,1875,-247,-2646,2
-5056,8504,2472,4667,-1368,830,2
-3612,8140,2532,6940,-2583,3234,2
-3468,8192,2376,9795,-4203,3719,2
-2452,9636,2968,11444,-4503,4642,2
-2396,12688,2768,11868,-3371,4451,2
-1928,15440,3312,10011,-70,4479,2
-3288,16404,3624,8253,5905,3483,2
-4596,17204,2736,4785,9458,2322,2
-5576,16016,1396,2376,6485,3244,2
-6032,14980,744,208,2445,2583,2
-7208,14444,-516,-357,-504,2938,2
-7424,14524,-1800,-363,-1491,1198,2
-5576,14852,-1632,-261,-717,248,2
-3844,13844,-656,-11,-12,456,2
-3500,12952,416,1196,542,1549,2
-5332,12764,1532,2040,2730,3087,2
-8364,15192,564,1915,-286,2521,2
-6964,22844,-2544,-196,-6547,522,2
-836,31876,-1784,-3202,-12271,-867,2
2284,29256,-368,-3260,-12068,2009,2
-2608,23736,2640,-6042,-9669,3413,2
-604,20292,364,-3684,-6293,-111,2
2972,17892,-2876,-495,2918,-4745,2
3108,15832,-4348,1846,7127,-5400,2
3296,16644,-3844,3288,9441,-3483,2
1184,16336,-3632,2002,8544,244,2
-1664,15704,-2724,2107,5676,5726,2
-6060,17700,-1796,2258,-4656,8122,2
-1360,17620,-416,1251,-10250,8703,2
152,16480,1228,1004,-9979,7623,2
616,16664,1584,403,-5237,6635,2
-544,15516,-264,1147,-189,3980,2
628,15172,-396,2152,1835,929,2
556,15028,376,2599,3187,-774,2
84,15172,1384,2945,3328,-74,2
-1480,15392,1840,2184,1529,1250,2
-2700,15684,1524,608,-2135,2421,2
-2676,15352,272,-577,-4530,2960,2
-1968,15416,-796,-749,-4262,2376,2
-1624,16496,-1124,-659,-2433,1399,2
-1492,15008,-332,-897,-707,-1166,2
-1364,12256,-600,-762,-612,-4406,2
-1176,10804,-792,-34,-1793,-6110,2
-1444,10804,-1508,1187,-4122,-6146,2
-1348,11360,-924,2204,-6613,-4957,2
-1880,14024,-32,2650,-9318,-2991,2
-1576,15108,-648,2865,-10799,-1177,2
-2480,16540,-44,2550,-11857,435,2
-2476,16408,1804,1297,-12538,872,2
-328,15064,3204,1614,-10130,294,2
108,15040,4280,1968,-7501,-1198,2
844,14716,5808,2580,-5427,-2858,2
944,14920,6208,3220,-2605,-5045,2
-796,16752,5600,2274,44,-6242,2
-2196,20132,2492,939,3417,-6251,2
-3356,26560,-980,-1850,5159,-5811,2
-5236,26732,-4520,-5459,6039,-6048,2
-6600,24208,-6300,-7078,3042,-5225,2
-9616,19200,-6728,-8374,-1800,-6691,2
-9804,16620,-7752,-7483,-4804,-5315,2
-9212,15364,-5784,-5823,-10549,-3340,2
-6688,16248,-3724,-4858,-15231,-205,2
-3312,17468,-788,-4652,-13420,790,2
-2480,17752,1760,-5019,-7221,-1579,2
-4396,17960,2436,-6433,-3516,-887,2
-4304,14100,2860,-5184,-1711,-4267,2
-3860,12064,1980,-3598,1170,-3877,2
-3572,12280,1992,-2198,3144,-4175,2
-4008,11984,1212,-443,4225,-3682,2
-5228,11504,212,516,2231,-1811,2
-4720,11496,352,1363,831,1325,2
-5364,11320,288,1922,-287,4050,2
-4972,10060,904,3196,-1576,6044,2
-4772,10280,1664,4825,-3637,7692,2
-3956,11056,2196,6010,-5274,8603,2
-3980,12280,2972,5897,-4624,7804,2
-3872,14216,2776,5771,-2024,6438,2
-5272,14840,2528,5618,-218,5701,2
-5040,16728,1940,4808,-442,4112,2
-4752,16036,1680,3566,-645,2529,2
-4576,13636,1848,2010,-261,853,2
-4724,12236,1072,1101,-1685,-292,2
-3988,11904,736,1288,-1092,-1095,2
-2364,13760,640,1552,2775,-1410,2
-1560,14912,-340,1904,6137,-1643,2
-2508,16080,-568,1928,6679,49,2
-5360,15372,-1624,2172,4623,1833,2
-7924,14848,-2148,1195,789,3956,2
-7900,13760,-2920,678,-3169,4872,2
-5924,12288,-2688,681,-5980,5170,2
-6888,11952,-2792,1328,-6950,5808,2
-7104,17672,-2604,3379,-11030,4176,2
-2448,30228,-3588,2541,-18934,2767,2
2076,30552,4432,-2692,-20292,5457,2
-1092,29124,6552,-5894,-17924,6229,2
-5560,28736,2836,-9099,-17724,1364,2
3484,14880,-1696,-5035,-447,-7666,2
3788,11548,-1940,-213,5084,-10303,2
3512,12272,-4116,4062,8831,-6264,2
3452,15884,-3956,3836,8466,-2099,2
2140,16752,-4076,3222,7178,1356,2
-1540,16244,-4428,3354,8245,5888,2
-6808,18252,-3092,1892,-309,6761,2
-5972,16032,-440,930,-10176,6106,2
-2660,16508,1392,1103,-12822,6405,2
-776,15780,1980,105,-10324,6270,2
1748,13920,88,1144,-4434,3766,2
1944,15068,-544,2918,693,691,2
532,17452,96,3454,3726,-777,2
-1108,17996,2156,2985,1990,1713,2
-2268,16788,3220,1489,-813,3232,2
-2304,15800,2004,-134,-1617,2292,2
-2544,14692,-252,-763,-2705,1135,2
-1880,14328,-1968,-735,-2319,846,2
-2292,15140,-1764,-507,-1707,447,2
-3044,15256,-2492,184,-2255,-680,2
-2000,13980,-1632,522,-2605,-2498,2
-1800,13036,-960,1228,-4268,-3416,2
-1300,12036,28,1813,-5638,-2783,2
-2176,12244,-168,1994,-7817,-2268,2
-2792,13132,-144,1978,-10339,-989,2
-2408,14436,620,1943,-11679,132,2
-796,16068,1508,1305,-11414,-195,2
628,15480,2092,1028,-9297,-831,2
900,16848,2860,994,-6137,-2004,2
100,16068,3576,308,-3258,-2820,2
-2092,14668,2864,607,-2261,-3092,2
-2856,15520,1424,1374,-2531,-3057,2
-1672,14640,2800,1405,-3135,-1865,2
-988,12824,3704,1283,-2518,-2465,2
-1492,13236,2752,1833,-509,-3665,2
-2612,16436,1228,1237,989,-4587,2
-3728,21108,580,-242,637,-4398,2
-6488,26008,-384,-2450,1654,-5416,2
-5176,32767,-6584,-6343,879,-4447,2
-4932,25236,-4732,-11296,-67,-4881,2
-5656,16536,-6620,-10702,1789,-5552,2
-8576,14352,-6392,-7415,-3372,-4005,2
-7000,14292,-3912,-4712,-8433,-1224,2
-5096,15512,-2040,-3728,-9442,1521,2
-2104,16252,868,-3763,-6376,366,2
-2912,15896,1240,-4405,-2151,-1514,2
-4156,14720,552,-4697,-525,-3339,2
-5336,14684,100,-4109,-311,-3154,2
-5768,14732,268,-4096,-835,-3027,2
-4872,14104,452,-3673,797,-2995,2
-5696,14000,852,-2996,535,-3138,2
-5116,12608,2352,-2264,-2160,-2203,2
-4820,12264,2196,238,-2771,530,2
-4984,12376,1564,1280,-2505,1806,2
-4524,11812,2648,3507,-1876,2738,2
-4268,12084,2992,4863,-2489,4313,2
-4136,13368,2804,5599,-2562,4897,2
-4172,15608,2784,5482,-1597,4920,2
-4520,16876,2760,5368,1018,3651,2
-4100,15100,2164,4743,2268,2601,2
-4408,13392,1660,5011,2503,1546,2
-4772,14928,956,4867,2786,414,2
-4556,14596,176,3540,571,-996,2
-4120,13272,596,1827,-63,-1304,2
-3836,12004,512,1251,-81,-1694,2
-2780,11592,8,1640,1731,-1152,2
-2920,12716,-864,2141,2283,1146,2
-3580,13580,-1160,1982,1243,3210,2
-3628,13896,-1052,1709,-614,5101,2
-6076,14732,-2168,1057,-4549,7246,2
-6100,15360,-2736,1213,-8457,7399,2
-5180,15396,-252,-108,-11069,7203,2
-5428,14948,1144,-91,-11885,7939,2
-7624,17096,112,774,-13401,7163,2
-2924,27952,-1420,-895,-15028,1479,2
1396,25496,2128,-1463,-10224,-291,2
2332,19144,4848,-1703,410,-1389,2
-2804,27048,900,-1326,2163,-2797,2
3688,17392,-1288,-1009,7687,-5653,2
4272,15364,-3032,792,13034,-6974,2
3120,16512,-3568,-116,12192,-3226,2
596,15792,-5044,-706,9630,3884,2
-3640,14028,-6020,668,1725,9191,2
-3368,14064,-3396,1622,-6388,6832,2
-2228,15484,-1320,1144,-9690,6134,2
1264,16196,-280,1673,-6456,5005,2
1484,16696,292,2055,-3045,2499,2
-524,16340,1184,2373,-2334,1729,2
-1412,16212,820,2352,-3409,2483,2
